ExperimentName,Subject,Session,Clock.Information,Display.RefreshRate,Group,RandomSeed,SessionDate,SessionTime,SessionTimeUtc,Block,ans,answer,ce,cf,cfi,co,color1,color2,color3,color4,color5,color6,color7,color8,cs,cse,ct,cth,danswer,dce,dcf,dcfi,dco,dcs,dcse,dct,dcth,difcolor,difcolor1,dresc,encoding,exp1,exp1.Cycle,exp1.Sample,exp2,exp2.Cycle,exp2.Sample,memorizing,prac,prac.Cycle,prac.Sample,pracresp.ACC,Procedure,resc,resp.ACC,resp.CRESP,resp.RESP,resp.RT,respcolor,Running,samecolor,samecolor1
finals counterbalance,1,1,"<?xml version=""1.0""?>\n<Clock xmlns:dt=""urn:schemas-microsoft-com:datatypes""><Description dt:dt=""string"">E-Prime Primary Realtime Clock</Description><StartTime><Timestamp dt:dt=""int"">0</Timestamp><DateUtc dt:dt=""string"">2020-12-28T02:53:28Z</DateUtc></StartTime><FrequencyChanges><FrequencyChange><Frequency dt:dt=""r8"">3117812</Frequency><Timestamp dt:dt=""r8"">8981153029</Timestamp><Current dt:dt=""r8"">0</Current><DateUtc dt:dt=""string"">2020-12-28T02:53:28Z</DateUtc></FrequencyChange></FrequencyChanges></Clock>\n",60.002,1,391418592,12-28-2020,10:53:28,上午 02:53:28,1,n,n,navy,olive,cyan,yellow,yellow,purple,red,olive,cyan,blue,magenta,navy,blue,magenta,purple,red,x,cyan,magenta,maroon,green,gray,yellow,olive,black,9,,blue,100,,,,,,,500,1,1,1,0,pracproc,magenta,,,,,magenta,prac,20,
finals counterbalance,1,1,"<?xml version=""1.0""?>\n<Clock xmlns:dt=""urn:schemas-microsoft-com:datatypes""><Description dt:dt=""string"">E-Prime Primary Realtime Clock</Description><StartTime><Timestamp dt:dt=""int"">0</Timestamp><DateUtc dt:dt=""string"">2020-12-28T02:53:28Z</DateUtc></StartTime><FrequencyChanges><FrequencyChange><Frequency dt:dt=""r8"">3117812</Frequency><Timestamp dt:dt=""r8"">8981153029</Timestamp><Current dt:dt=""r8"">0</Current><DateUtc dt:dt=""string"">2020-12-28T02:53:28Z</DateUtc></FrequencyChange></FrequencyChanges></Clock>\n",60.002,1,391418592,12-28-2020,10:53:28,上午 02:53:28,2,x,n,red,cyan,purple,navy,red,green,yellow,magenta,maroon,black,cyan,purple,gray,black,blue,maroon,x,purple,magenta,maroon,red,black,cyan,green,yellow,14,,navy,900,,,,,,,1500,12,1,2,1,pracproc,blue,,,,,navy,prac,9,
finals counterbalance,1,1,"<?xml version=""1.0""?>\n<Clock xmlns:dt=""urn:schemas-microsoft-com:datatypes""><Description dt:dt=""string"">E-Prime Primary Realtime Clock</Description><StartTime><Timestamp dt:dt=""int"">0</Timestamp><DateUtc dt:dt=""string"">2020-12-28T02:53:28Z</DateUtc></StartTime><FrequencyChanges><FrequencyChange><Frequency dt:dt=""r8"">3117812</Frequency><Timestamp dt:dt=""r8"">8981153029</Timestamp><Current dt:dt=""r8"">0</Current><DateUtc dt:dt=""string"">2020-12-28T02:53:28Z</DateUtc></FrequencyChange></FrequencyChanges></Clock>\n",60.002,1,391418592,12-28-2020,10:53:28,上午 02:53:28,3,n,n,gray,red,yellow,green,green,magenta,maroon,red,yellow,purple,blue,gray,purple,blue,magenta,maroon,x,gray,olive,cyan,red,purple,blue,black,yellow,8,,magenta,500,,,,,,,1500,4,1,3,0,pracproc,green,,,,,green,prac,15,
finals counterbalance,1,1,"<?xml version=""1.0""?>\n<Clock xmlns:dt=""urn:schemas-microsoft-com:datatypes""><Description dt:dt=""string"">E-Prime Primary Realtime Clock</Description><StartTime><Timestamp dt:dt=""int"">0</Timestamp><DateUtc dt:dt=""string"">2020-12-28T02:53:28Z</DateUtc></StartTime><FrequencyChanges><FrequencyChange><Frequency dt:dt=""r8"">3117812</Frequency><Timestamp dt:dt=""r8"">8981153029</Timestamp><Current dt:dt=""r8"">0</Current><DateUtc dt:dt=""string"">2020-12-28T02:53:28Z</DateUtc></FrequencyChange></FrequencyChanges></Clock>\n",60.002,1,391418592,12-28-2020,10:53:28,上午 02:53:28,4,x,n,blue,black,green,purple,magenta,navy,maroon,purple,yellow,red,olive,green,navy,olive,maroon,red,x,green,purple,yellow,magenta,red,olive,navy,maroon,6,,black,100,,,,,,,500,7,1,4,0,pracproc,black,,,,,black,prac,24,
finals counterbalance,1,1,"<?xml version=""1.0""?>\n<Clock xmlns:dt=""urn:schemas-microsoft-com:datatypes""><Description dt:dt=""string"">E-Prime Primary Realtime Clock</Description><StartTime><Timestamp dt:dt=""int"">0</Timestamp><DateUtc dt:dt=""string"">2020-12-28T02:53:28Z</DateUtc></StartTime><FrequencyChanges><FrequencyChange><Frequency dt:dt=""r8"">3117812</Frequency><Timestamp dt:dt=""r8"">8981153029</Timestamp><Current dt:dt=""r8"">0</Current><DateUtc dt:dt=""string"">2020-12-28T02:53:28Z</DateUtc></FrequencyChange></FrequencyChanges></Clock>\n",60.002,1,391418592,12-28-2020,10:53:28,上午 02:53:28,5,x,n,gray,maroon,purple,magenta,gray,blue,cyan,green,navy,olive,red,maroon,yellow,black,navy,olive,x,maroon,green,navy,gray,olive,red,blue,cyan,24,,purple,100,,,,,,,1500,8,1,5,1,pracproc,yellow,,,,,purple,prac,18,
finals counterbalance,1,1,"<?xml version=""1.0""?>\n<Clock xmlns:dt=""urn:schemas-microsoft-com:datatypes""><Description dt:dt=""string"">E-Prime Primary Realtime Clock</Description><StartTime><Timestamp dt:dt=""int"">0</Timestamp><DateUtc dt:dt=""string"">2020-12-28T02:53:28Z</DateUtc></StartTime><FrequencyChanges><FrequencyChange><Frequency dt:dt=""r8"">3117812</Frequency><Timestamp dt:dt=""r8"">8981153029</Timestamp><Current dt:dt=""r8"">0</Current><DateUtc dt:dt=""string"">2020-12-28T02:53:28Z</DateUtc></FrequencyChange></FrequencyChanges></Clock>\n",60.002,1,391418592,12-28-2020,10:53:28,上午 02:53:28,6,x,n,olive,black,gray,blue,gray,red,cyan,black,blue,yellow,purple,olive,purple,red,green,magenta,x,olive,black,blue,gray,yellow,purple,red,cyan,20,,magenta,500,,,,,,,1500,10,1,6,1,pracproc,olive,,,,,magenta,prac,2,
finals counterbalance,1,1,"<?xml version=""1.0""?>\n<Clock xmlns:dt=""urn:schemas-microsoft-com:datatypes""><Description dt:dt=""string"">E-Prime Primary Realtime Clock</Description><StartTime><Timestamp dt:dt=""int"">0</Timestamp><DateUtc dt:dt=""string"">2020-12-28T02:53:28Z</DateUtc></StartTime><FrequencyChanges><FrequencyChange><Frequency dt:dt=""r8"">3117812</Frequency><Timestamp dt:dt=""r8"">8981153029</Timestamp><Current dt:dt=""r8"">0</Current><DateUtc dt:dt=""string"">2020-12-28T02:53:28Z</DateUtc></FrequencyChange></FrequencyChanges></Clock>\n",60.002,1,391418592,12-28-2020,10:53:28,上午 02:53:28,7,n,n,black,green,red,olive,olive,blue,gray,green,red,magenta,purple,black,magenta,purple,blue,gray,x,gray,maroon,cyan,blue,red,navy,green,olive,12,,purple,100,,,,,,,1500,2,1,7,0,pracproc,olive,,,,,olive,prac,14,
finals counterbalance,1,1,"<?xml version=""1.0""?>\n<Clock xmlns:dt=""urn:schemas-microsoft-com:datatypes""><Description dt:dt=""string"">E-Prime Primary Realtime Clock</Description><StartTime><Timestamp dt:dt=""int"">0</Timestamp><DateUtc dt:dt=""string"">2020-12-28T02:53:28Z</DateUtc></StartTime><FrequencyChanges><FrequencyChange><Frequency dt:dt=""r8"">3117812</Frequency><Timestamp dt:dt=""r8"">8981153029</Timestamp><Current dt:dt=""r8"">0</Current><DateUtc dt:dt=""string"">2020-12-28T02:53:28Z</DateUtc></FrequencyChange></FrequencyChanges></Clock>\n",60.002,1,391418592,12-28-2020,10:53:28,上午 02:53:28,8,n,n,cyan,blue,black,red,red,navy,purple,blue,black,maroon,gray,cyan,maroon,gray,navy,purple,x,navy,maroon,green,gray,blue,cyan,purple,red,7,,olive,500,,,,,,,500,3,1,8,1,pracproc,blue,,,,,blue,prac,21,
finals counterbalance,1,1,"<?xml version=""1.0""?>\n<Clock xmlns:dt=""urn:schemas-microsoft-com:datatypes""><Description dt:dt=""string"">E-Prime Primary Realtime Clock</Description><StartTime><Timestamp dt:dt=""int"">0</Timestamp><DateUtc dt:dt=""string"">2020-12-28T02:53:28Z</DateUtc></StartTime><FrequencyChanges><FrequencyChange><Frequency dt:dt=""r8"">3117812</Frequency><Timestamp dt:dt=""r8"">8981153029</Timestamp><Current dt:dt=""r8"">0</Current><DateUtc dt:dt=""string"">2020-12-28T02:53:28Z</DateUtc></FrequencyChange></FrequencyChanges></Clock>\n",60.002,1,391418592,12-28-2020,10:53:28,上午 02:53:28,9,x,n,purple,blue,red,maroon,cyan,green,maroon,olive,yellow,black,gray,magenta,olive,green,black,navy,x,magenta,olive,yellow,cyan,black,gray,green,maroon,21,,blue,500,,,,,,,500,9,1,9,1,pracproc,black,,,,,blue,prac,12,
finals counterbalance,1,1,"<?xml version=""1.0""?>\n<Clock xmlns:dt=""urn:schemas-microsoft-com:datatypes""><Description dt:dt=""string"">E-Prime Primary Realtime Clock</Description><StartTime><Timestamp dt:dt=""int"">0</Timestamp><DateUtc dt:dt=""string"">2020-12-28T02:53:28Z</DateUtc></StartTime><FrequencyChanges><FrequencyChange><Frequency dt:dt=""r8"">3117812</Frequency><Timestamp dt:dt=""r8"">8981153029</Timestamp><Current dt:dt=""r8"">0</Current><DateUtc dt:dt=""string"">2020-12-28T02:53:28Z</DateUtc></FrequencyChange></FrequencyChanges></Clock>\n",60.002,1,391418592,12-28-2020,10:53:28,上午 02:53:28,10,n,n,yellow,green,navy,cyan,cyan,gray,blue,green,navy,black,olive,yellow,black,olive,gray,blue,x,black,olive,blue,yellow,maroon,purple,magenta,navy,10,,gray,900,,,,,,,500,5,1,10,1,pracproc,navy,,,,,navy,prac,1,
finals counterbalance,1,1,"<?xml version=""1.0""?>\n<Clock xmlns:dt=""urn:schemas-microsoft-com:datatypes""><Description dt:dt=""string"">E-Prime Primary Realtime Clock</Description><StartTime><Timestamp dt:dt=""int"">0</Timestamp><DateUtc dt:dt=""string"">2020-12-28T02:53:28Z</DateUtc></StartTime><FrequencyChanges><FrequencyChange><Frequency dt:dt=""r8"">3117812</Frequency><Timestamp dt:dt=""r8"">8981153029</Timestamp><Current dt:dt=""r8"">0</Current><DateUtc dt:dt=""string"">2020-12-28T02:53:28Z</DateUtc></FrequencyChange></FrequencyChanges></Clock>\n",60.002,1,391418592,12-28-2020,10:53:28,上午 02:53:28,11,x,n,red,cyan,blue,gray,black,yellow,blue,magenta,purple,navy,maroon,olive,olive,maroon,yellow,magenta,x,olive,magenta,purple,black,navy,maroon,yellow,blue,22,,gray,900,,,,,,,500,11,1,11,1,pracproc,maroon,,,,,gray,prac,17,
finals counterbalance,1,1,"<?xml version=""1.0""?>\n<Clock xmlns:dt=""urn:schemas-microsoft-com:datatypes""><Description dt:dt=""string"">E-Prime Primary Realtime Clock</Description><StartTime><Timestamp dt:dt=""int"">0</Timestamp><DateUtc dt:dt=""string"">2020-12-28T02:53:28Z</DateUtc></StartTime><FrequencyChanges><FrequencyChange><Frequency dt:dt=""r8"">3117812</Frequency><Timestamp dt:dt=""r8"">8981153029</Timestamp><Current dt:dt=""r8"">0</Current><DateUtc dt:dt=""string"">2020-12-28T02:53:28Z</DateUtc></FrequencyChange></FrequencyChanges></Clock>\n",60.002,1,391418592,12-28-2020,10:53:28,上午 02:53:28,12,n,n,yellow,navy,red,purple,purple,olive,blue,navy,red,magenta,cyan,yellow,magenta,cyan,olive,blue,x,purple,navy,olive,green,maroon,red,magenta,yellow,18,,black,900,,,,,,,1500,6,1,12,0,pracproc,magenta,,,,,magenta,prac,8,
finals counterbalance,1,1,"<?xml version=""1.0""?>\n<Clock xmlns:dt=""urn:schemas-microsoft-com:datatypes""><Description dt:dt=""string"">E-Prime Primary Realtime Clock</Description><StartTime><Timestamp dt:dt=""int"">0</Timestamp><DateUtc dt:dt=""string"">2020-12-28T02:53:28Z</DateUtc></StartTime><FrequencyChanges><FrequencyChange><Frequency dt:dt=""r8"">3117812</Frequency><Timestamp dt:dt=""r8"">8981153029</Timestamp><Current dt:dt=""r8"">0</Current><DateUtc dt:dt=""string"">2020-12-28T02:53:28Z</DateUtc></FrequencyChange></FrequencyChanges></Clock>\n",60.002,1,391418592,12-28-2020,10:53:28,上午 02:53:28,13,n,n,green,gray,olive,yellow,yellow,cyan,navy,gray,olive,blue,black,green,blue,black,cyan,navy,x,navy,yellow,magenta,blue,green,maroon,black,gray,23,,cyan,100,,,,,,,500,1,2,13,1,pracproc,navy,,,,,navy,prac,13,
finals counterbalance,1,1,"<?xml version=""1.0""?>\n<Clock xmlns:dt=""urn:schemas-microsoft-com:datatypes""><Description dt:dt=""string"">E-Prime Primary Realtime Clock</Description><StartTime><Timestamp dt:dt=""int"">0</Timestamp><DateUtc dt:dt=""string"">2020-12-28T02:53:28Z</DateUtc></StartTime><FrequencyChanges><FrequencyChange><Frequency dt:dt=""r8"">3117812</Frequency><Timestamp dt:dt=""r8"">8981153029</Timestamp><Current dt:dt=""r8"">0</Current><DateUtc dt:dt=""string"">2020-12-28T02:53:28Z</DateUtc></FrequencyChange></FrequencyChanges></Clock>\n",60.002,1,391418592,12-28-2020,10:53:28,上午 02:53:28,14,x,n,blue,green,black,purple,maroon,black,olive,purple,gray,red,green,cyan,olive,magenta,red,cyan,x,cyan,purple,gray,maroon,red,green,black,olive,15,,yellow,100,,,,,,,500,7,2,14,1,pracproc,cyan,,,,,yellow,prac,4,
finals counterbalance,1,1,"<?xml version=""1.0""?>\n<Clock xmlns:dt=""urn:schemas-microsoft-com:datatypes""><Description dt:dt=""string"">E-Prime Primary Realtime Clock</Description><StartTime><Timestamp dt:dt=""int"">0</Timestamp><DateUtc dt:dt=""string"">2020-12-28T02:53:28Z</DateUtc></StartTime><FrequencyChanges><FrequencyChange><Frequency dt:dt=""r8"">3117812</Frequency><Timestamp dt:dt=""r8"">8981153029</Timestamp><Current dt:dt=""r8"">0</Current><DateUtc dt:dt=""string"">2020-12-28T02:53:28Z</DateUtc></FrequencyChange></FrequencyChanges></Clock>\n",60.002,1,391418592,12-28-2020,10:53:28,上午 02:53:28,15,x,n,green,gray,maroon,magenta,cyan,olive,blue,gray,green,magenta,navy,yellow,blue,yellow,red,purple,x,yellow,gray,green,cyan,magenta,navy,olive,blue,17,,maroon,500,,,,,,,500,9,2,15,1,pracproc,green,,,,,maroon,prac,3,
finals counterbalance,1,1,"<?xml version=""1.0""?>\n<Clock xmlns:dt=""urn:schemas-microsoft-com:datatypes""><Description dt:dt=""string"">E-Prime Primary Realtime Clock</Description><StartTime><Timestamp dt:dt=""int"">0</Timestamp><DateUtc dt:dt=""string"">2020-12-28T02:53:28Z</DateUtc></StartTime><FrequencyChanges><FrequencyChange><Frequency dt:dt=""r8"">3117812</Frequency><Timestamp dt:dt=""r8"">8981153029</Timestamp><Current dt:dt=""r8"">0</Current><DateUtc dt:dt=""string"">2020-12-28T02:53:28Z</DateUtc></FrequencyChange></FrequencyChanges></Clock>\n",60.002,1,391418592,12-28-2020,10:53:28,上午 02:53:28,16,n,n,green,red,magenta,blue,blue,purple,black,red,magenta,cyan,olive,green,cyan,olive,purple,black,x,magenta,blue,black,red,yellow,maroon,cyan,gray,4,,green,500,,,,,,,1500,4,2,16,0,pracproc,cyan,,,,,cyan,prac,16,
finals counterbalance,1,1,"<?xml version=""1.0""?>\n<Clock xmlns:dt=""urn:schemas-microsoft-com:datatypes""><Description dt:dt=""string"">E-Prime Primary Realtime Clock</Description><StartTime><Timestamp dt:dt=""int"">0</Timestamp><DateUtc dt:dt=""string"">2020-12-28T02:53:28Z</DateUtc></StartTime><FrequencyChanges><FrequencyChange><Frequency dt:dt=""r8"">3117812</Frequency><Timestamp dt:dt=""r8"">8981153029</Timestamp><Current dt:dt=""r8"">0</Current><DateUtc dt:dt=""string"">2020-12-28T02:53:28Z</DateUtc></FrequencyChange></FrequencyChanges></Clock>\n",60.002,1,391418592,12-28-2020,10:53:28,上午 02:53:28,17,n,n,yellow,maroon,black,purple,purple,cyan,magenta,maroon,black,gray,navy,yellow,gray,navy,cyan,magenta,x,magenta,blue,navy,black,green,yellow,gray,purple,13,,red,900,,,,,,,1500,6,2,17,0,pracproc,gray,,,,,gray,prac,22,
finals counterbalance,1,1,"<?xml version=""1.0""?>\n<Clock xmlns:dt=""urn:schemas-microsoft-com:datatypes""><Description dt:dt=""string"">E-Prime Primary Realtime Clock</Description><StartTime><Timestamp dt:dt=""int"">0</Timestamp><DateUtc dt:dt=""string"">2020-12-28T02:53:28Z</DateUtc></StartTime><FrequencyChanges><FrequencyChange><Frequency dt:dt=""r8"">3117812</Frequency><Timestamp dt:dt=""r8"">8981153029</Timestamp><Current dt:dt=""r8"">0</Current><DateUtc dt:dt=""string"">2020-12-28T02:53:28Z</DateUtc></FrequencyChange></FrequencyChanges></Clock>\n",60.002,1,391418592,12-28-2020,10:53:28,上午 02:53:28,18,n,n,magenta,gray,olive,navy,navy,maroon,yellow,gray,olive,black,purple,magenta,black,purple,maroon,yellow,x,cyan,yellow,blue,olive,navy,green,gray,magenta,5,,maroon,100,,,,,,,1500,2,2,18,1,pracproc,yellow,,,,,yellow,prac,6,
finals counterbalance,1,1,"<?xml version=""1.0""?>\n<Clock xmlns:dt=""urn:schemas-microsoft-com:datatypes""><Description dt:dt=""string"">E-Prime Primary Realtime Clock</Description><StartTime><Timestamp dt:dt=""int"">0</Timestamp><DateUtc dt:dt=""string"">2020-12-28T02:53:28Z</DateUtc></StartTime><FrequencyChanges><FrequencyChange><Frequency dt:dt=""r8"">3117812</Frequency><Timestamp dt:dt=""r8"">8981153029</Timestamp><Current dt:dt=""r8"">0</Current><DateUtc dt:dt=""string"">2020-12-28T02:53:28Z</DateUtc></FrequencyChange></FrequencyChanges></Clock>\n",60.002,1,391418592,12-28-2020,10:53:28,上午 02:53:28,19,n,n,red,yellow,gray,olive,olive,maroon,navy,yellow,gray,purple,green,red,purple,green,maroon,navy,x,maroon,purple,cyan,navy,red,blue,gray,green,19,,olive,900,,,,,,,500,5,2,19,1,pracproc,purple,,,,,purple,prac,19,
finals counterbalance,1,1,"<?xml version=""1.0""?>\n<Clock xmlns:dt=""urn:schemas-microsoft-com:datatypes""><Description dt:dt=""string"">E-Prime Primary Realtime Clock</Description><StartTime><Timestamp dt:dt=""int"">0</Timestamp><DateUtc dt:dt=""string"">2020-12-28T02:53:28Z</DateUtc></StartTime><FrequencyChanges><FrequencyChange><Frequency dt:dt=""r8"">3117812</Frequency><Timestamp dt:dt=""r8"">8981153029</Timestamp><Current dt:dt=""r8"">0</Current><DateUtc dt:dt=""string"">2020-12-28T02:53:28Z</DateUtc></FrequencyChange></FrequencyChanges></Clock>\n",60.002,1,391418592,12-28-2020,10:53:28,上午 02:53:28,20,n,n,purple,yellow,magenta,cyan,cyan,maroon,gray,yellow,magenta,navy,black,purple,navy,black,maroon,gray,x,black,magenta,purple,gray,yellow,navy,blue,green,1,,red,500,,,,,,,500,3,2,20,0,pracproc,gray,,,,,gray,prac,10,
finals counterbalance,1,1,"<?xml version=""1.0""?>\n<Clock xmlns:dt=""urn:schemas-microsoft-com:datatypes""><Description dt:dt=""string"">E-Prime Primary Realtime Clock</Description><StartTime><Timestamp dt:dt=""int"">0</Timestamp><DateUtc dt:dt=""string"">2020-12-28T02:53:28Z</DateUtc></StartTime><FrequencyChanges><FrequencyChange><Frequency dt:dt=""r8"">3117812</Frequency><Timestamp dt:dt=""r8"">8981153029</Timestamp><Current dt:dt=""r8"">0</Current><DateUtc dt:dt=""string"">2020-12-28T02:53:28Z</DateUtc></FrequencyChange></FrequencyChanges></Clock>\n",60.002,1,391418592,12-28-2020,10:53:28,上午 02:53:28,21,x,n,maroon,black,green,olive,magenta,red,black,cyan,maroon,gray,yellow,blue,magenta,red,navy,cyan,x,blue,cyan,maroon,magenta,gray,yellow,red,black,16,,green,900,,,,,,,1500,12,2,21,1,pracproc,red,,,,,green,prac,11,
finals counterbalance,1,1,"<?xml version=""1.0""?>\n<Clock xmlns:dt=""urn:schemas-microsoft-com:datatypes""><Description dt:dt=""string"">E-Prime Primary Realtime Clock</Description><StartTime><Timestamp dt:dt=""int"">0</Timestamp><DateUtc dt:dt=""string"">2020-12-28T02:53:28Z</DateUtc></StartTime><FrequencyChanges><FrequencyChange><Frequency dt:dt=""r8"">3117812</Frequency><Timestamp dt:dt=""r8"">8981153029</Timestamp><Current dt:dt=""r8"">0</Current><DateUtc dt:dt=""string"">2020-12-28T02:53:28Z</DateUtc></FrequencyChange></FrequencyChanges></Clock>\n",60.002,1,391418592,12-28-2020,10:53:28,上午 02:53:28,22,x,n,black,navy,red,maroon,black,purple,red,cyan,olive,green,gray,maroon,cyan,magenta,olive,green,x,maroon,cyan,olive,black,green,gray,purple,red,3,,yellow,500,,,,,,,1500,10,2,22,1,pracproc,red,,,,,yellow,prac,23,
finals counterbalance,1,1,"<?xml version=""1.0""?>\n<Clock xmlns:dt=""urn:schemas-microsoft-com:datatypes""><Description dt:dt=""string"">E-Prime Primary Realtime Clock</Description><StartTime><Timestamp dt:dt=""int"">0</Timestamp><DateUtc dt:dt=""string"">2020-12-28T02:53:28Z</DateUtc></StartTime><FrequencyChanges><FrequencyChange><Frequency dt:dt=""r8"">3117812</Frequency><Timestamp dt:dt=""r8"">8981153029</Timestamp><Current dt:dt=""r8"">0</Current><DateUtc dt:dt=""string"">2020-12-28T02:53:28Z</DateUtc></FrequencyChange></FrequencyChanges></Clock>\n",60.002,1,391418592,12-28-2020,10:53:28,上午 02:53:28,23,n,n,olive,red,navy,maroon,maroon,yellow,purple,red,navy,green,gray,olive,green,gray,yellow,purple,x,red,purple,yellow,green,cyan,maroon,magenta,black,2,,navy,100,2,1,1,,,,1500,,,,,wkproc,purple,1,n,n,780,purple,exp1,7,
finals counterbalance,1,1,"<?xml version=""1.0""?>\n<Clock xmlns:dt=""urn:schemas-microsoft-com:datatypes""><Description dt:dt=""string"">E-Prime Primary Realtime Clock</Description><StartTime><Timestamp dt:dt=""int"">0</Timestamp><DateUtc dt:dt=""string"">2020-12-28T02:53:28Z</DateUtc></StartTime><FrequencyChanges><FrequencyChange><Frequency dt:dt=""r8"">3117812</Frequency><Timestamp dt:dt=""r8"">8981153029</Timestamp><Current dt:dt=""r8"">0</Current><DateUtc dt:dt=""string"">2020-12-28T02:53:28Z</DateUtc></FrequencyChange></FrequencyChanges></Clock>\n",60.002,1,391418592,12-28-2020,10:53:28,上午 02:53:28,24,n,n,gray,red,magenta,yellow,yellow,cyan,olive,red,magenta,maroon,blue,gray,maroon,blue,cyan,olive,x,blue,navy,gray,black,maroon,magenta,yellow,green,11,,cyan,100,1,1,2,,,,500,,,,,wkproc,maroon,1,n,n,746,maroon,exp1,5,
finals counterbalance,1,1,"<?xml version=""1.0""?>\n<Clock xmlns:dt=""urn:schemas-microsoft-com:datatypes""><Description dt:dt=""string"">E-Prime Primary Realtime Clock</Description><StartTime><Timestamp dt:dt=""int"">0</Timestamp><DateUtc dt:dt=""string"">2020-12-28T02:53:28Z</DateUtc></StartTime><FrequencyChanges><FrequencyChange><Frequency dt:dt=""r8"">3117812</Frequency><Timestamp dt:dt=""r8"">8981153029</Timestamp><Current dt:dt=""r8"">0</Current><DateUtc dt:dt=""string"">2020-12-28T02:53:28Z</DateUtc></FrequencyChange></FrequencyChanges></Clock>\n",60.002,1,391418592,12-28-2020,10:53:28,上午 02:53:28,25,x,n,yellow,maroon,black,purple,cyan,olive,blue,gray,green,magenta,navy,yellow,gray,navy,cyan,magenta,x,yellow,gray,green,cyan,magenta,navy,olive,blue,17,,maroon,900,11,1,3,,,,500,,,,,wkproc,gray,1,x,x,862,maroon,exp1,22,
finals counterbalance,1,1,"<?xml version=""1.0""?>\n<Clock xmlns:dt=""urn:schemas-microsoft-com:datatypes""><Description dt:dt=""string"">E-Prime Primary Realtime Clock</Description><StartTime><Timestamp dt:dt=""int"">0</Timestamp><DateUtc dt:dt=""string"">2020-12-28T02:53:28Z</DateUtc></StartTime><FrequencyChanges><FrequencyChange><Frequency dt:dt=""r8"">3117812</Frequency><Timestamp dt:dt=""r8"">8981153029</Timestamp><Current dt:dt=""r8"">0</Current><DateUtc dt:dt=""string"">2020-12-28T02:53:28Z</DateUtc></FrequencyChange></FrequencyChanges></Clock>\n",60.002,1,391418592,12-28-2020,10:53:28,上午 02:53:28,26,x,n,maroon,black,green,olive,gray,blue,green,magenta,purple,yellow,navy,black,magenta,red,navy,cyan,x,black,magenta,purple,gray,yellow,navy,blue,green,1,,red,900,12,1,4,,,,1500,,,,,wkproc,red,1,x,x,718,red,exp1,11,
finals counterbalance,1,1,"<?xml version=""1.0""?>\n<Clock xmlns:dt=""urn:schemas-microsoft-com:datatypes""><Description dt:dt=""string"">E-Prime Primary Realtime Clock</Description><StartTime><Timestamp dt:dt=""int"">0</Timestamp><DateUtc dt:dt=""string"">2020-12-28T02:53:28Z</DateUtc></StartTime><FrequencyChanges><FrequencyChange><Frequency dt:dt=""r8"">3117812</Frequency><Timestamp dt:dt=""r8"">8981153029</Timestamp><Current dt:dt=""r8"">0</Current><DateUtc dt:dt=""string"">2020-12-28T02:53:28Z</DateUtc></FrequencyChange></FrequencyChanges></Clock>\n",60.002,1,391418592,12-28-2020,10:53:28,上午 02:53:28,27,n,n,purple,yellow,magenta,cyan,cyan,maroon,gray,yellow,magenta,navy,black,purple,navy,black,maroon,gray,x,purple,magenta,maroon,red,black,cyan,green,yellow,14,,navy,500,3,1,5,,,,500,,,,,wkproc,gray,0,n,x,685,gray,exp1,10,
finals counterbalance,1,1,"<?xml version=""1.0""?>\n<Clock xmlns:dt=""urn:schemas-microsoft-com:datatypes""><Description dt:dt=""string"">E-Prime Primary Realtime Clock</Description><StartTime><Timestamp dt:dt=""int"">0</Timestamp><DateUtc dt:dt=""string"">2020-12-28T02:53:28Z</DateUtc></StartTime><FrequencyChanges><FrequencyChange><Frequency dt:dt=""r8"">3117812</Frequency><Timestamp dt:dt=""r8"">8981153029</Timestamp><Current dt:dt=""r8"">0</Current><DateUtc dt:dt=""string"">2020-12-28T02:53:28Z</DateUtc></FrequencyChange></FrequencyChanges></Clock>\n",60.002,1,391418592,12-28-2020,10:53:28,上午 02:53:28,28,x,n,olive,black,gray,blue,green,olive,black,magenta,maroon,gray,yellow,cyan,purple,red,green,magenta,x,cyan,magenta,maroon,green,gray,yellow,olive,black,9,,blue,500,9,1,6,,,,500,,,,,wkproc,olive,1,x,x,667,blue,exp1,2,
finals counterbalance,1,1,"<?xml version=""1.0""?>\n<Clock xmlns:dt=""urn:schemas-microsoft-com:datatypes""><Description dt:dt=""string"">E-Prime Primary Realtime Clock</Description><StartTime><Timestamp dt:dt=""int"">0</Timestamp><DateUtc dt:dt=""string"">2020-12-28T02:53:28Z</DateUtc></StartTime><FrequencyChanges><FrequencyChange><Frequency dt:dt=""r8"">3117812</Frequency><Timestamp dt:dt=""r8"">8981153029</Timestamp><Current dt:dt=""r8"">0</Current><DateUtc dt:dt=""string"">2020-12-28T02:53:28Z</DateUtc></FrequencyChange></FrequencyChanges></Clock>\n",60.002,1,391418592,12-28-2020,10:53:28,上午 02:53:28,29,x,n,purple,blue,red,maroon,black,purple,red,cyan,olive,green,gray,maroon,olive,green,black,navy,x,maroon,cyan,olive,black,green,gray,purple,red,3,,yellow,100,8,1,7,,,,1500,,,,,wkproc,black,1,x,x,628,yellow,exp1,12,
finals counterbalance,1,1,"<?xml version=""1.0""?>\n<Clock xmlns:dt=""urn:schemas-microsoft-com:datatypes""><Description dt:dt=""string"">E-Prime Primary Realtime Clock</Description><StartTime><Timestamp dt:dt=""int"">0</Timestamp><DateUtc dt:dt=""string"">2020-12-28T02:53:28Z</DateUtc></StartTime><FrequencyChanges><FrequencyChange><Frequency dt:dt=""r8"">3117812</Frequency><Timestamp dt:dt=""r8"">8981153029</Timestamp><Current dt:dt=""r8"">0</Current><DateUtc dt:dt=""string"">2020-12-28T02:53:28Z</DateUtc></FrequencyChange></FrequencyChanges></Clock>\n",60.002,1,391418592,12-28-2020,10:53:28,上午 02:53:28,30,n,n,gray,red,magenta,yellow,yellow,cyan,olive,red,magenta,maroon,blue,gray,maroon,blue,cyan,olive,x,cyan,yellow,blue,olive,navy,green,gray,magenta,5,,maroon,900,6,1,8,,,,1500,,,,,wkproc,maroon,1,n,n,1183,maroon,exp1,5,
finals counterbalance,1,1,"<?xml version=""1.0""?>\n<Clock xmlns:dt=""urn:schemas-microsoft-com:datatypes""><Description dt:dt=""string"">E-Prime Primary Realtime Clock</Description><StartTime><Timestamp dt:dt=""int"">0</Timestamp><DateUtc dt:dt=""string"">2020-12-28T02:53:28Z</DateUtc></StartTime><FrequencyChanges><FrequencyChange><Frequency dt:dt=""r8"">3117812</Frequency><Timestamp dt:dt=""r8"">8981153029</Timestamp><Current dt:dt=""r8"">0</Current><DateUtc dt:dt=""string"">2020-12-28T02:53:28Z</DateUtc></FrequencyChange></FrequencyChanges></Clock>\n",60.002,1,391418592,12-28-2020,10:53:28,上午 02:53:28,31,x,n,navy,olive,cyan,yellow,green,magenta,yellow,navy,olive,maroon,red,purple,blue,magenta,purple,red,x,purple,navy,olive,green,maroon,red,magenta,yellow,18,,black,100,7,1,9,,,,500,,,,,wkproc,magenta,1,x,x,717,black,exp1,20,
finals counterbalance,1,1,"<?xml version=""1.0""?>\n<Clock xmlns:dt=""urn:schemas-microsoft-com:datatypes""><Description dt:dt=""string"">E-Prime Primary Realtime Clock</Description><StartTime><Timestamp dt:dt=""int"">0</Timestamp><DateUtc dt:dt=""string"">2020-12-28T02:53:28Z</DateUtc></StartTime><FrequencyChanges><FrequencyChange><Frequency dt:dt=""r8"">3117812</Frequency><Timestamp dt:dt=""r8"">8981153029</Timestamp><Current dt:dt=""r8"">0</Current><DateUtc dt:dt=""string"">2020-12-28T02:53:28Z</DateUtc></FrequencyChange></FrequencyChanges></Clock>\n",60.002,1,391418592,12-28-2020,10:53:28,上午 02:53:28,32,n,n,green,red,magenta,blue,blue,purple,black,red,magenta,cyan,olive,green,cyan,olive,purple,black,x,magenta,olive,yellow,cyan,black,gray,green,maroon,21,,blue,900,5,1,10,,,,500,,,,,wkproc,cyan,1,n,n,1161,cyan,exp1,16,
finals counterbalance,1,1,"<?xml version=""1.0""?>\n<Clock xmlns:dt=""urn:schemas-microsoft-com:datatypes""><Description dt:dt=""string"">E-Prime Primary Realtime Clock</Description><StartTime><Timestamp dt:dt=""int"">0</Timestamp><DateUtc dt:dt=""string"">2020-12-28T02:53:28Z</DateUtc></StartTime><FrequencyChanges><FrequencyChange><Frequency dt:dt=""r8"">3117812</Frequency><Timestamp dt:dt=""r8"">8981153029</Timestamp><Current dt:dt=""r8"">0</Current><DateUtc dt:dt=""string"">2020-12-28T02:53:28Z</DateUtc></FrequencyChange></FrequencyChanges></Clock>\n",60.002,1,391418592,12-28-2020,10:53:28,上午 02:53:28,33,n,n,green,gray,maroon,magenta,magenta,red,purple,gray,maroon,blue,yellow,green,blue,yellow,red,purple,x,gray,maroon,cyan,blue,red,navy,green,olive,12,,purple,500,4,1,11,,,,1500,,,,,wkproc,green,0,n,x,1043,green,exp1,3,
finals counterbalance,1,1,"<?xml version=""1.0""?>\n<Clock xmlns:dt=""urn:schemas-microsoft-com:datatypes""><Description dt:dt=""string"">E-Prime Primary Realtime Clock</Description><StartTime><Timestamp dt:dt=""int"">0</Timestamp><DateUtc dt:dt=""string"">2020-12-28T02:53:28Z</DateUtc></StartTime><FrequencyChanges><FrequencyChange><Frequency dt:dt=""r8"">3117812</Frequency><Timestamp dt:dt=""r8"">8981153029</Timestamp><Current dt:dt=""r8"">0</Current><DateUtc dt:dt=""string"">2020-12-28T02:53:28Z</DateUtc></FrequencyChange></FrequencyChanges></Clock>\n",60.002,1,391418592,12-28-2020,10:53:28,上午 02:53:28,34,x,n,gray,maroon,purple,magenta,black,yellow,blue,magenta,purple,navy,maroon,olive,yellow,black,navy,olive,x,olive,magenta,purple,black,navy,maroon,yellow,blue,22,,gray,500,10,1,12,,,,1500,,,,,wkproc,yellow,1,x,x,1598,gray,exp1,18,
finals counterbalance,1,1,"<?xml version=""1.0""?>\n<Clock xmlns:dt=""urn:schemas-microsoft-com:datatypes""><Description dt:dt=""string"">E-Prime Primary Realtime Clock</Description><StartTime><Timestamp dt:dt=""int"">0</Timestamp><DateUtc dt:dt=""string"">2020-12-28T02:53:28Z</DateUtc></StartTime><FrequencyChanges><FrequencyChange><Frequency dt:dt=""r8"">3117812</Frequency><Timestamp dt:dt=""r8"">8981153029</Timestamp><Current dt:dt=""r8"">0</Current><DateUtc dt:dt=""string"">2020-12-28T02:53:28Z</DateUtc></FrequencyChange></FrequencyChanges></Clock>\n",60.002,1,391418592,12-28-2020,10:53:28,上午 02:53:28,35,n,n,yellow,navy,red,purple,purple,olive,blue,navy,red,magenta,cyan,yellow,magenta,cyan,olive,blue,x,blue,cyan,maroon,magenta,gray,yellow,red,black,16,,green,900,6,2,13,,,,1500,,,,,wkproc,magenta,0,n,x,3170,magenta,exp1,8,
finals counterbalance,1,1,"<?xml version=""1.0""?>\n<Clock xmlns:dt=""urn:schemas-microsoft-com:datatypes""><Description dt:dt=""string"">E-Prime Primary Realtime Clock</Description><StartTime><Timestamp dt:dt=""int"">0</Timestamp><DateUtc dt:dt=""string"">2020-12-28T02:53:28Z</DateUtc></StartTime><FrequencyChanges><FrequencyChange><Frequency dt:dt=""r8"">3117812</Frequency><Timestamp dt:dt=""r8"">8981153029</Timestamp><Current dt:dt=""r8"">0</Current><DateUtc dt:dt=""string"">2020-12-28T02:53:28Z</DateUtc></FrequencyChange></FrequencyChanges></Clock>\n",60.002,1,391418592,12-28-2020,10:53:28,上午 02:53:28,36,x,n,yellow,green,navy,cyan,black,yellow,green,navy,gray,maroon,magenta,blue,black,olive,gray,blue,x,blue,navy,gray,black,maroon,magenta,yellow,green,11,,cyan,500,10,2,14,,,,1500,,,,,wkproc,navy,1,x,x,1498,cyan,exp1,1,
finals counterbalance,1,1,"<?xml version=""1.0""?>\n<Clock xmlns:dt=""urn:schemas-microsoft-com:datatypes""><Description dt:dt=""string"">E-Prime Primary Realtime Clock</Description><StartTime><Timestamp dt:dt=""int"">0</Timestamp><DateUtc dt:dt=""string"">2020-12-28T02:53:28Z</DateUtc></StartTime><FrequencyChanges><FrequencyChange><Frequency dt:dt=""r8"">3117812</Frequency><Timestamp dt:dt=""r8"">8981153029</Timestamp><Current dt:dt=""r8"">0</Current><DateUtc dt:dt=""string"">2020-12-28T02:53:28Z</DateUtc></FrequencyChange></FrequencyChanges></Clock>\n",60.002,1,391418592,12-28-2020,10:53:28,上午 02:53:28,37,n,n,red,cyan,blue,gray,gray,yellow,magenta,cyan,blue,olive,maroon,red,olive,maroon,yellow,magenta,x,maroon,green,navy,gray,olive,red,blue,cyan,24,,purple,500,4,2,15,,,,1500,,,,,wkproc,maroon,1,n,n,852,maroon,exp1,17,
finals counterbalance,1,1,"<?xml version=""1.0""?>\n<Clock xmlns:dt=""urn:schemas-microsoft-com:datatypes""><Description dt:dt=""string"">E-Prime Primary Realtime Clock</Description><StartTime><Timestamp dt:dt=""int"">0</Timestamp><DateUtc dt:dt=""string"">2020-12-28T02:53:28Z</DateUtc></StartTime><FrequencyChanges><FrequencyChange><Frequency dt:dt=""r8"">3117812</Frequency><Timestamp dt:dt=""r8"">8981153029</Timestamp><Current dt:dt=""r8"">0</Current><DateUtc dt:dt=""string"">2020-12-28T02:53:28Z</DateUtc></FrequencyChange></FrequencyChanges></Clock>\n",60.002,1,391418592,12-28-2020,10:53:28,上午 02:53:28,38,n,n,black,green,red,olive,olive,blue,gray,green,red,magenta,purple,black,magenta,purple,blue,gray,x,olive,black,blue,gray,yellow,purple,red,cyan,20,,magenta,500,3,2,16,,,,500,,,,,wkproc,olive,0,n,x,1174,olive,exp1,14,
finals counterbalance,1,1,"<?xml version=""1.0""?>\n<Clock xmlns:dt=""urn:schemas-microsoft-com:datatypes""><Description dt:dt=""string"">E-Prime Primary Realtime Clock</Description><StartTime><Timestamp dt:dt=""int"">0</Timestamp><DateUtc dt:dt=""string"">2020-12-28T02:53:28Z</DateUtc></StartTime><FrequencyChanges><FrequencyChange><Frequency dt:dt=""r8"">3117812</Frequency><Timestamp dt:dt=""r8"">8981153029</Timestamp><Current dt:dt=""r8"">0</Current><DateUtc dt:dt=""string"">2020-12-28T02:53:28Z</DateUtc></FrequencyChange></FrequencyChanges></Clock>\n",60.002,1,391418592,12-28-2020,10:53:28,上午 02:53:28,39,n,n,black,navy,red,maroon,maroon,olive,green,navy,red,cyan,magenta,black,cyan,magenta,olive,green,x,magenta,blue,navy,black,green,yellow,gray,purple,13,,red,100,1,2,17,,,,500,,,,,wkproc,red,0,n,x,1700,red,exp1,23,
finals counterbalance,1,1,"<?xml version=""1.0""?>\n<Clock xmlns:dt=""urn:schemas-microsoft-com:datatypes""><Description dt:dt=""string"">E-Prime Primary Realtime Clock</Description><StartTime><Timestamp dt:dt=""int"">0</Timestamp><DateUtc dt:dt=""string"">2020-12-28T02:53:28Z</DateUtc></StartTime><FrequencyChanges><FrequencyChange><Frequency dt:dt=""r8"">3117812</Frequency><Timestamp dt:dt=""r8"">8981153029</Timestamp><Current dt:dt=""r8"">0</Current><DateUtc dt:dt=""string"">2020-12-28T02:53:28Z</DateUtc></FrequencyChange></FrequencyChanges></Clock>\n",60.002,1,391418592,12-28-2020,10:53:28,上午 02:53:28,40,n,n,gray,red,yellow,green,green,magenta,maroon,red,yellow,purple,blue,gray,purple,blue,magenta,maroon,x,maroon,purple,cyan,navy,red,blue,gray,green,19,,olive,100,2,2,18,,,,1500,,,,,wkproc,green,0,n,x,806,green,exp1,15,
finals counterbalance,1,1,"<?xml version=""1.0""?>\n<Clock xmlns:dt=""urn:schemas-microsoft-com:datatypes""><Description dt:dt=""string"">E-Prime Primary Realtime Clock</Description><StartTime><Timestamp dt:dt=""int"">0</Timestamp><DateUtc dt:dt=""string"">2020-12-28T02:53:28Z</DateUtc></StartTime><FrequencyChanges><FrequencyChange><Frequency dt:dt=""r8"">3117812</Frequency><Timestamp dt:dt=""r8"">8981153029</Timestamp><Current dt:dt=""r8"">0</Current><DateUtc dt:dt=""string"">2020-12-28T02:53:28Z</DateUtc></FrequencyChange></FrequencyChanges></Clock>\n",60.002,1,391418592,12-28-2020,10:53:28,上午 02:53:28,41,x,n,magenta,gray,olive,navy,red,black,yellow,olive,cyan,purple,blue,gray,black,purple,maroon,yellow,x,gray,olive,cyan,red,purple,blue,black,yellow,8,,magenta,100,7,2,19,,,,500,,,,,wkproc,yellow,1,x,x,894,magenta,exp1,6,
finals counterbalance,1,1,"<?xml version=""1.0""?>\n<Clock xmlns:dt=""urn:schemas-microsoft-com:datatypes""><Description dt:dt=""string"">E-Prime Primary Realtime Clock</Description><StartTime><Timestamp dt:dt=""int"">0</Timestamp><DateUtc dt:dt=""string"">2020-12-28T02:53:28Z</DateUtc></StartTime><FrequencyChanges><FrequencyChange><Frequency dt:dt=""r8"">3117812</Frequency><Timestamp dt:dt=""r8"">8981153029</Timestamp><Current dt:dt=""r8"">0</Current><DateUtc dt:dt=""string"">2020-12-28T02:53:28Z</DateUtc></FrequencyChange></FrequencyChanges></Clock>\n",60.002,1,391418592,12-28-2020,10:53:28,上午 02:53:28,42,x,n,blue,green,black,purple,green,magenta,black,purple,yellow,cyan,maroon,red,olive,magenta,red,cyan,x,red,purple,yellow,green,cyan,maroon,magenta,black,2,,navy,900,12,2,20,,,,1500,,,,,wkproc,cyan,1,x,x,950,navy,exp1,4,
finals counterbalance,1,1,"<?xml version=""1.0""?>\n<Clock xmlns:dt=""urn:schemas-microsoft-com:datatypes""><Description dt:dt=""string"">E-Prime Primary Realtime Clock</Description><StartTime><Timestamp dt:dt=""int"">0</Timestamp><DateUtc dt:dt=""string"">2020-12-28T02:53:28Z</DateUtc></StartTime><FrequencyChanges><FrequencyChange><Frequency dt:dt=""r8"">3117812</Frequency><Timestamp dt:dt=""r8"">8981153029</Timestamp><Current dt:dt=""r8"">0</Current><DateUtc dt:dt=""string"">2020-12-28T02:53:28Z</DateUtc></FrequencyChange></FrequencyChanges></Clock>\n",60.002,1,391418592,12-28-2020,10:53:28,上午 02:53:28,43,x,n,green,gray,olive,yellow,maroon,black,olive,purple,gray,red,green,cyan,blue,black,cyan,navy,x,cyan,purple,gray,maroon,red,green,black,olive,15,,yellow,900,11,2,21,,,,500,,,,,wkproc,navy,1,x,x,1161,yellow,exp1,13,
finals counterbalance,1,1,"<?xml version=""1.0""?>\n<Clock xmlns:dt=""urn:schemas-microsoft-com:datatypes""><Description dt:dt=""string"">E-Prime Primary Realtime Clock</Description><StartTime><Timestamp dt:dt=""int"">0</Timestamp><DateUtc dt:dt=""string"">2020-12-28T02:53:28Z</DateUtc></StartTime><FrequencyChanges><FrequencyChange><Frequency dt:dt=""r8"">3117812</Frequency><Timestamp dt:dt=""r8"">8981153029</Timestamp><Current dt:dt=""r8"">0</Current><DateUtc dt:dt=""string"">2020-12-28T02:53:28Z</DateUtc></FrequencyChange></FrequencyChanges></Clock>\n",60.002,1,391418592,12-28-2020,10:53:28,上午 02:53:28,44,x,n,olive,red,navy,maroon,magenta,navy,maroon,purple,yellow,red,olive,green,green,gray,yellow,purple,x,green,purple,yellow,magenta,red,olive,navy,maroon,6,,black,500,9,2,22,,,,500,,,,,wkproc,purple,0,x,n,949,black,exp1,7,
finals counterbalance,1,1,"<?xml version=""1.0""?>\n<Clock xmlns:dt=""urn:schemas-microsoft-com:datatypes""><Description dt:dt=""string"">E-Prime Primary Realtime Clock</Description><StartTime><Timestamp dt:dt=""int"">0</Timestamp><DateUtc dt:dt=""string"">2020-12-28T02:53:28Z</DateUtc></StartTime><FrequencyChanges><FrequencyChange><Frequency dt:dt=""r8"">3117812</Frequency><Timestamp dt:dt=""r8"">8981153029</Timestamp><Current dt:dt=""r8"">0</Current><DateUtc dt:dt=""string"">2020-12-28T02:53:28Z</DateUtc></FrequencyChange></FrequencyChanges></Clock>\n",60.002,1,391418592,12-28-2020,10:53:28,上午 02:53:28,45,x,n,blue,black,green,purple,gray,purple,red,maroon,green,blue,cyan,navy,navy,olive,maroon,red,x,navy,maroon,green,gray,blue,cyan,purple,red,7,,olive,100,8,2,23,,,,1500,,,,,wkproc,black,1,x,x,921,olive,exp1,24,
finals counterbalance,1,1,"<?xml version=""1.0""?>\n<Clock xmlns:dt=""urn:schemas-microsoft-com:datatypes""><Description dt:dt=""string"">E-Prime Primary Realtime Clock</Description><StartTime><Timestamp dt:dt=""int"">0</Timestamp><DateUtc dt:dt=""string"">2020-12-28T02:53:28Z</DateUtc></StartTime><FrequencyChanges><FrequencyChange><Frequency dt:dt=""r8"">3117812</Frequency><Timestamp dt:dt=""r8"">8981153029</Timestamp><Current dt:dt=""r8"">0</Current><DateUtc dt:dt=""string"">2020-12-28T02:53:28Z</DateUtc></FrequencyChange></FrequencyChanges></Clock>\n",60.002,1,391418592,12-28-2020,10:53:28,上午 02:53:28,46,n,n,red,cyan,purple,navy,navy,blue,maroon,cyan,purple,gray,black,red,gray,black,blue,maroon,x,magenta,blue,black,red,yellow,maroon,cyan,gray,4,,green,900,5,2,24,,,,500,,,,,wkproc,blue,0,n,x,660,blue,exp1,9,
finals counterbalance,1,1,"<?xml version=""1.0""?>\n<Clock xmlns:dt=""urn:schemas-microsoft-com:datatypes""><Description dt:dt=""string"">E-Prime Primary Realtime Clock</Description><StartTime><Timestamp dt:dt=""int"">0</Timestamp><DateUtc dt:dt=""string"">2020-12-28T02:53:28Z</DateUtc></StartTime><FrequencyChanges><FrequencyChange><Frequency dt:dt=""r8"">3117812</Frequency><Timestamp dt:dt=""r8"">8981153029</Timestamp><Current dt:dt=""r8"">0</Current><DateUtc dt:dt=""string"">2020-12-28T02:53:28Z</DateUtc></FrequencyChange></FrequencyChanges></Clock>\n",60.002,1,391418592,12-28-2020,10:53:28,上午 02:53:28,47,n,n,cyan,blue,black,red,red,navy,purple,blue,black,maroon,gray,cyan,maroon,gray,navy,purple,x,navy,yellow,magenta,blue,green,maroon,black,gray,23,,cyan,900,5,3,25,,,,500,,,,,wkproc,blue,1,n,n,744,blue,exp1,21,
finals counterbalance,1,1,"<?xml version=""1.0""?>\n<Clock xmlns:dt=""urn:schemas-microsoft-com:datatypes""><Description dt:dt=""string"">E-Prime Primary Realtime Clock</Description><StartTime><Timestamp dt:dt=""int"">0</Timestamp><DateUtc dt:dt=""string"">2020-12-28T02:53:28Z</DateUtc></StartTime><FrequencyChanges><FrequencyChange><Frequency dt:dt=""r8"">3117812</Frequency><Timestamp dt:dt=""r8"">8981153029</Timestamp><Current dt:dt=""r8"">0</Current><DateUtc dt:dt=""string"">2020-12-28T02:53:28Z</DateUtc></FrequencyChange></FrequencyChanges></Clock>\n",60.002,1,391418592,12-28-2020,10:53:28,上午 02:53:28,48,x,n,red,yellow,gray,olive,yellow,magenta,navy,olive,blue,maroon,purple,black,purple,green,maroon,navy,x,black,olive,blue,yellow,maroon,purple,magenta,navy,10,,gray,900,12,3,26,,,,1500,,,,,wkproc,purple,1,x,x,1027,gray,exp1,19,
finals counterbalance,1,1,"<?xml version=""1.0""?>\n<Clock xmlns:dt=""urn:schemas-microsoft-com:datatypes""><Description dt:dt=""string"">E-Prime Primary Realtime Clock</Description><StartTime><Timestamp dt:dt=""int"">0</Timestamp><DateUtc dt:dt=""string"">2020-12-28T02:53:28Z</DateUtc></StartTime><FrequencyChanges><FrequencyChange><Frequency dt:dt=""r8"">3117812</Frequency><Timestamp dt:dt=""r8"">8981153029</Timestamp><Current dt:dt=""r8"">0</Current><DateUtc dt:dt=""string"">2020-12-28T02:53:28Z</DateUtc></FrequencyChange></FrequencyChanges></Clock>\n",60.002,1,391418592,12-28-2020,10:53:28,上午 02:53:28,49,n,n,blue,black,green,purple,purple,maroon,red,black,green,navy,olive,blue,navy,olive,maroon,red,x,purple,magenta,maroon,red,black,cyan,green,yellow,14,,navy,500,4,3,27,,,,1500,,,,,wkproc,black,1,n,n,805,black,exp1,24,
finals counterbalance,1,1,"<?xml version=""1.0""?>\n<Clock xmlns:dt=""urn:schemas-microsoft-com:datatypes""><Description dt:dt=""string"">E-Prime Primary Realtime Clock</Description><StartTime><Timestamp dt:dt=""int"">0</Timestamp><DateUtc dt:dt=""string"">2020-12-28T02:53:28Z</DateUtc></StartTime><FrequencyChanges><FrequencyChange><Frequency dt:dt=""r8"">3117812</Frequency><Timestamp dt:dt=""r8"">8981153029</Timestamp><Current dt:dt=""r8"">0</Current><DateUtc dt:dt=""string"">2020-12-28T02:53:28Z</DateUtc></FrequencyChange></FrequencyChanges></Clock>\n",60.002,1,391418592,12-28-2020,10:53:28,上午 02:53:28,50,x,n,olive,black,gray,blue,gray,blue,cyan,green,navy,olive,red,maroon,purple,red,green,magenta,x,maroon,green,navy,gray,olive,red,blue,cyan,24,,purple,100,8,3,28,,,,1500,,,,,wkproc,olive,0,x,n,710,purple,exp1,2,
finals counterbalance,1,1,"<?xml version=""1.0""?>\n<Clock xmlns:dt=""urn:schemas-microsoft-com:datatypes""><Description dt:dt=""string"">E-Prime Primary Realtime Clock</Description><StartTime><Timestamp dt:dt=""int"">0</Timestamp><DateUtc dt:dt=""string"">2020-12-28T02:53:28Z</DateUtc></StartTime><FrequencyChanges><FrequencyChange><Frequency dt:dt=""r8"">3117812</Frequency><Timestamp dt:dt=""r8"">8981153029</Timestamp><Current dt:dt=""r8"">0</Current><DateUtc dt:dt=""string"">2020-12-28T02:53:28Z</DateUtc></FrequencyChange></FrequencyChanges></Clock>\n",60.002,1,391418592,12-28-2020,10:53:28,上午 02:53:28,51,x,n,gray,red,yellow,green,navy,gray,green,purple,cyan,red,blue,maroon,purple,blue,magenta,maroon,x,maroon,purple,cyan,navy,red,blue,gray,green,19,,olive,500,10,3,29,,,,1500,,,,,wkproc,green,1,x,x,971,olive,exp1,15,
finals counterbalance,1,1,"<?xml version=""1.0""?>\n<Clock xmlns:dt=""urn:schemas-microsoft-com:datatypes""><Description dt:dt=""string"">E-Prime Primary Realtime Clock</Description><StartTime><Timestamp dt:dt=""int"">0</Timestamp><DateUtc dt:dt=""string"">2020-12-28T02:53:28Z</DateUtc></StartTime><FrequencyChanges><FrequencyChange><Frequency dt:dt=""r8"">3117812</Frequency><Timestamp dt:dt=""r8"">8981153029</Timestamp><Current dt:dt=""r8"">0</Current><DateUtc dt:dt=""string"">2020-12-28T02:53:28Z</DateUtc></FrequencyChange></FrequencyChanges></Clock>\n",60.002,1,391418592,12-28-2020,10:53:28,上午 02:53:28,52,x,n,cyan,blue,black,red,cyan,olive,blue,gray,green,magenta,navy,yellow,maroon,gray,navy,purple,x,yellow,gray,green,cyan,magenta,navy,olive,blue,17,,maroon,500,9,3,30,,,,500,,,,,wkproc,blue,0,x,n,1098,maroon,exp1,21,
finals counterbalance,1,1,"<?xml version=""1.0""?>\n<Clock xmlns:dt=""urn:schemas-microsoft-com:datatypes""><Description dt:dt=""string"">E-Prime Primary Realtime Clock</Description><StartTime><Timestamp dt:dt=""int"">0</Timestamp><DateUtc dt:dt=""string"">2020-12-28T02:53:28Z</DateUtc></StartTime><FrequencyChanges><FrequencyChange><Frequency dt:dt=""r8"">3117812</Frequency><Timestamp dt:dt=""r8"">8981153029</Timestamp><Current dt:dt=""r8"">0</Current><DateUtc dt:dt=""string"">2020-12-28T02:53:28Z</DateUtc></FrequencyChange></FrequencyChanges></Clock>\n",60.002,1,391418592,12-28-2020,10:53:28,上午 02:53:28,53,n,n,green,gray,olive,yellow,yellow,cyan,navy,gray,olive,blue,black,green,blue,black,cyan,navy,x,maroon,cyan,olive,black,green,gray,purple,red,3,,yellow,100,2,3,31,,,,1500,,,,,wkproc,navy,0,n,x,1387,navy,exp1,13,
finals counterbalance,1,1,"<?xml version=""1.0""?>\n<Clock xmlns:dt=""urn:schemas-microsoft-com:datatypes""><Description dt:dt=""string"">E-Prime Primary Realtime Clock</Description><StartTime><Timestamp dt:dt=""int"">0</Timestamp><DateUtc dt:dt=""string"">2020-12-28T02:53:28Z</DateUtc></StartTime><FrequencyChanges><FrequencyChange><Frequency dt:dt=""r8"">3117812</Frequency><Timestamp dt:dt=""r8"">8981153029</Timestamp><Current dt:dt=""r8"">0</Current><DateUtc dt:dt=""string"">2020-12-28T02:53:28Z</DateUtc></FrequencyChange></FrequencyChanges></Clock>\n",60.002,1,391418592,12-28-2020,10:53:28,上午 02:53:28,54,n,n,gray,red,magenta,yellow,yellow,cyan,olive,red,magenta,maroon,blue,gray,maroon,blue,cyan,olive,x,olive,magenta,purple,black,navy,maroon,yellow,blue,22,,gray,100,1,3,32,,,,500,,,,,wkproc,maroon,1,n,n,737,maroon,exp1,5,
finals counterbalance,1,1,"<?xml version=""1.0""?>\n<Clock xmlns:dt=""urn:schemas-microsoft-com:datatypes""><Description dt:dt=""string"">E-Prime Primary Realtime Clock</Description><StartTime><Timestamp dt:dt=""int"">0</Timestamp><DateUtc dt:dt=""string"">2020-12-28T02:53:28Z</DateUtc></StartTime><FrequencyChanges><FrequencyChange><Frequency dt:dt=""r8"">3117812</Frequency><Timestamp dt:dt=""r8"">8981153029</Timestamp><Current dt:dt=""r8"">0</Current><DateUtc dt:dt=""string"">2020-12-28T02:53:28Z</DateUtc></FrequencyChange></FrequencyChanges></Clock>\n",60.002,1,391418592,12-28-2020,10:53:28,上午 02:53:28,55,n,n,black,green,red,olive,olive,blue,gray,green,red,magenta,purple,black,magenta,purple,blue,gray,x,gray,maroon,cyan,blue,red,navy,green,olive,12,,purple,500,3,3,33,,,,500,,,,,wkproc,olive,1,n,n,603,olive,exp1,14,
finals counterbalance,1,1,"<?xml version=""1.0""?>\n<Clock xmlns:dt=""urn:schemas-microsoft-com:datatypes""><Description dt:dt=""string"">E-Prime Primary Realtime Clock</Description><StartTime><Timestamp dt:dt=""int"">0</Timestamp><DateUtc dt:dt=""string"">2020-12-28T02:53:28Z</DateUtc></StartTime><FrequencyChanges><FrequencyChange><Frequency dt:dt=""r8"">3117812</Frequency><Timestamp dt:dt=""r8"">8981153029</Timestamp><Current dt:dt=""r8"">0</Current><DateUtc dt:dt=""string"">2020-12-28T02:53:28Z</DateUtc></FrequencyChange></FrequencyChanges></Clock>\n",60.002,1,391418592,12-28-2020,10:53:28,上午 02:53:28,56,x,n,yellow,green,navy,cyan,green,magenta,black,purple,yellow,cyan,maroon,red,black,olive,gray,blue,x,red,purple,yellow,green,cyan,maroon,magenta,black,2,,navy,100,7,3,34,,,,500,,,,,wkproc,navy,0,x,n,931,navy,exp1,1,
finals counterbalance,1,1,"<?xml version=""1.0""?>\n<Clock xmlns:dt=""urn:schemas-microsoft-com:datatypes""><Description dt:dt=""string"">E-Prime Primary Realtime Clock</Description><StartTime><Timestamp dt:dt=""int"">0</Timestamp><DateUtc dt:dt=""string"">2020-12-28T02:53:28Z</DateUtc></StartTime><FrequencyChanges><FrequencyChange><Frequency dt:dt=""r8"">3117812</Frequency><Timestamp dt:dt=""r8"">8981153029</Timestamp><Current dt:dt=""r8"">0</Current><DateUtc dt:dt=""string"">2020-12-28T02:53:28Z</DateUtc></FrequencyChange></FrequencyChanges></Clock>\n",60.002,1,391418592,12-28-2020,10:53:28,上午 02:53:28,57,n,n,green,gray,maroon,magenta,magenta,red,purple,gray,maroon,blue,yellow,green,blue,yellow,red,purple,x,black,magenta,purple,gray,yellow,navy,blue,green,1,,red,900,6,3,35,,,,1500,,,,,wkproc,green,1,n,n,1031,green,exp1,3,
finals counterbalance,1,1,"<?xml version=""1.0""?>\n<Clock xmlns:dt=""urn:schemas-microsoft-com:datatypes""><Description dt:dt=""string"">E-Prime Primary Realtime Clock</Description><StartTime><Timestamp dt:dt=""int"">0</Timestamp><DateUtc dt:dt=""string"">2020-12-28T02:53:28Z</DateUtc></StartTime><FrequencyChanges><FrequencyChange><Frequency dt:dt=""r8"">3117812</Frequency><Timestamp dt:dt=""r8"">8981153029</Timestamp><Current dt:dt=""r8"">0</Current><DateUtc dt:dt=""string"">2020-12-28T02:53:28Z</DateUtc></FrequencyChange></FrequencyChanges></Clock>\n",60.002,1,391418592,12-28-2020,10:53:28,上午 02:53:28,58,x,n,red,yellow,gray,olive,green,olive,black,magenta,maroon,gray,yellow,cyan,purple,green,maroon,navy,x,cyan,magenta,maroon,green,gray,yellow,olive,black,9,,blue,900,11,3,36,,,,500,,,,,wkproc,purple,1,x,x,942,blue,exp1,19,
finals counterbalance,1,1,"<?xml version=""1.0""?>\n<Clock xmlns:dt=""urn:schemas-microsoft-com:datatypes""><Description dt:dt=""string"">E-Prime Primary Realtime Clock</Description><StartTime><Timestamp dt:dt=""int"">0</Timestamp><DateUtc dt:dt=""string"">2020-12-28T02:53:28Z</DateUtc></StartTime><FrequencyChanges><FrequencyChange><Frequency dt:dt=""r8"">3117812</Frequency><Timestamp dt:dt=""r8"">8981153029</Timestamp><Current dt:dt=""r8"">0</Current><DateUtc dt:dt=""string"">2020-12-28T02:53:28Z</DateUtc></FrequencyChange></FrequencyChanges></Clock>\n",60.002,1,391418592,12-28-2020,10:53:28,上午 02:53:28,59,x,n,yellow,navy,red,purple,maroon,black,olive,purple,gray,red,green,cyan,magenta,cyan,olive,blue,x,cyan,purple,gray,maroon,red,green,black,olive,15,,yellow,100,7,4,37,,,,500,,,,,wkproc,magenta,1,x,x,703,yellow,exp1,8,
finals counterbalance,1,1,"<?xml version=""1.0""?>\n<Clock xmlns:dt=""urn:schemas-microsoft-com:datatypes""><Description dt:dt=""string"">E-Prime Primary Realtime Clock</Description><StartTime><Timestamp dt:dt=""int"">0</Timestamp><DateUtc dt:dt=""string"">2020-12-28T02:53:28Z</DateUtc></StartTime><FrequencyChanges><FrequencyChange><Frequency dt:dt=""r8"">3117812</Frequency><Timestamp dt:dt=""r8"">8981153029</Timestamp><Current dt:dt=""r8"">0</Current><DateUtc dt:dt=""string"">2020-12-28T02:53:28Z</DateUtc></FrequencyChange></FrequencyChanges></Clock>\n",60.002,1,391418592,12-28-2020,10:53:28,上午 02:53:28,60,n,n,magenta,gray,olive,navy,navy,maroon,yellow,gray,olive,black,purple,magenta,black,purple,maroon,yellow,x,blue,cyan,maroon,magenta,gray,yellow,red,black,16,,green,900,6,4,38,,,,1500,,,,,wkproc,yellow,0,n,x,1759,yellow,exp1,6,
finals counterbalance,1,1,"<?xml version=""1.0""?>\n<Clock xmlns:dt=""urn:schemas-microsoft-com:datatypes""><Description dt:dt=""string"">E-Prime Primary Realtime Clock</Description><StartTime><Timestamp dt:dt=""int"">0</Timestamp><DateUtc dt:dt=""string"">2020-12-28T02:53:28Z</DateUtc></StartTime><FrequencyChanges><FrequencyChange><Frequency dt:dt=""r8"">3117812</Frequency><Timestamp dt:dt=""r8"">8981153029</Timestamp><Current dt:dt=""r8"">0</Current><DateUtc dt:dt=""string"">2020-12-28T02:53:28Z</DateUtc></FrequencyChange></FrequencyChanges></Clock>\n",60.002,1,391418592,12-28-2020,10:53:28,上午 02:53:28,61,n,n,green,red,magenta,blue,blue,purple,black,red,magenta,cyan,olive,green,cyan,olive,purple,black,x,magenta,blue,navy,black,green,yellow,gray,purple,13,,red,900,5,4,39,,,,500,,,,,wkproc,cyan,0,n,x,859,cyan,exp1,16,
finals counterbalance,1,1,"<?xml version=""1.0""?>\n<Clock xmlns:dt=""urn:schemas-microsoft-com:datatypes""><Description dt:dt=""string"">E-Prime Primary Realtime Clock</Description><StartTime><Timestamp dt:dt=""int"">0</Timestamp><DateUtc dt:dt=""string"">2020-12-28T02:53:28Z</DateUtc></StartTime><FrequencyChanges><FrequencyChange><Frequency dt:dt=""r8"">3117812</Frequency><Timestamp dt:dt=""r8"">8981153029</Timestamp><Current dt:dt=""r8"">0</Current><DateUtc dt:dt=""string"">2020-12-28T02:53:28Z</DateUtc></FrequencyChange></FrequencyChanges></Clock>\n",60.002,1,391418592,12-28-2020,10:53:28,上午 02:53:28,62,n,n,blue,green,black,purple,purple,red,cyan,green,black,olive,magenta,blue,olive,magenta,red,cyan,x,magenta,olive,yellow,cyan,black,gray,green,maroon,21,,blue,500,4,4,40,,,,1500,,,,,wkproc,cyan,0,n,x,648,cyan,exp1,4,
finals counterbalance,1,1,"<?xml version=""1.0""?>\n<Clock xmlns:dt=""urn:schemas-microsoft-com:datatypes""><Description dt:dt=""string"">E-Prime Primary Realtime Clock</Description><StartTime><Timestamp dt:dt=""int"">0</Timestamp><DateUtc dt:dt=""string"">2020-12-28T02:53:28Z</DateUtc></StartTime><FrequencyChanges><FrequencyChange><Frequency dt:dt=""r8"">3117812</Frequency><Timestamp dt:dt=""r8"">8981153029</Timestamp><Current dt:dt=""r8"">0</Current><DateUtc dt:dt=""string"">2020-12-28T02:53:28Z</DateUtc></FrequencyChange></FrequencyChanges></Clock>\n",60.002,1,391418592,12-28-2020,10:53:28,上午 02:53:28,63,x,n,navy,olive,cyan,yellow,red,cyan,gray,blue,black,yellow,maroon,magenta,blue,magenta,purple,red,x,magenta,blue,black,red,yellow,maroon,cyan,gray,4,,green,900,12,4,41,,,,1500,,,,,wkproc,magenta,1,x,x,1147,green,exp1,20,
finals counterbalance,1,1,"<?xml version=""1.0""?>\n<Clock xmlns:dt=""urn:schemas-microsoft-com:datatypes""><Description dt:dt=""string"">E-Prime Primary Realtime Clock</Description><StartTime><Timestamp dt:dt=""int"">0</Timestamp><DateUtc dt:dt=""string"">2020-12-28T02:53:28Z</DateUtc></StartTime><FrequencyChanges><FrequencyChange><Frequency dt:dt=""r8"">3117812</Frequency><Timestamp dt:dt=""r8"">8981153029</Timestamp><Current dt:dt=""r8"">0</Current><DateUtc dt:dt=""string"">2020-12-28T02:53:28Z</DateUtc></FrequencyChange></FrequencyChanges></Clock>\n",60.002,1,391418592,12-28-2020,10:53:28,上午 02:53:28,64,n,n,black,navy,red,maroon,maroon,olive,green,navy,red,cyan,magenta,black,cyan,magenta,olive,green,x,green,purple,yellow,magenta,red,olive,navy,maroon,6,,black,100,2,4,42,,,,1500,,,,,wkproc,red,0,n,x,841,red,exp1,23,
finals counterbalance,1,1,"<?xml version=""1.0""?>\n<Clock xmlns:dt=""urn:schemas-microsoft-com:datatypes""><Description dt:dt=""string"">E-Prime Primary Realtime Clock</Description><StartTime><Timestamp dt:dt=""int"">0</Timestamp><DateUtc dt:dt=""string"">2020-12-28T02:53:28Z</DateUtc></StartTime><FrequencyChanges><FrequencyChange><Frequency dt:dt=""r8"">3117812</Frequency><Timestamp dt:dt=""r8"">8981153029</Timestamp><Current dt:dt=""r8"">0</Current><DateUtc dt:dt=""string"">2020-12-28T02:53:28Z</DateUtc></FrequencyChange></FrequencyChanges></Clock>\n",60.002,1,391418592,12-28-2020,10:53:28,上午 02:53:28,65,x,n,purple,blue,red,maroon,blue,black,gray,yellow,magenta,green,maroon,navy,olive,green,black,navy,x,navy,yellow,magenta,blue,green,maroon,black,gray,23,,cyan,900,11,4,43,,,,500,,,,,wkproc,black,1,x,x,2072,cyan,exp1,12,
finals counterbalance,1,1,"<?xml version=""1.0""?>\n<Clock xmlns:dt=""urn:schemas-microsoft-com:datatypes""><Description dt:dt=""string"">E-Prime Primary Realtime Clock</Description><StartTime><Timestamp dt:dt=""int"">0</Timestamp><DateUtc dt:dt=""string"">2020-12-28T02:53:28Z</DateUtc></StartTime><FrequencyChanges><FrequencyChange><Frequency dt:dt=""r8"">3117812</Frequency><Timestamp dt:dt=""r8"">8981153029</Timestamp><Current dt:dt=""r8"">0</Current><DateUtc dt:dt=""string"">2020-12-28T02:53:28Z</DateUtc></FrequencyChange></FrequencyChanges></Clock>\n",60.002,1,391418592,12-28-2020,10:53:28,上午 02:53:28,66,n,n,red,cyan,purple,navy,navy,blue,maroon,cyan,purple,gray,black,red,gray,black,blue,maroon,x,black,olive,blue,yellow,maroon,purple,magenta,navy,10,,gray,500,3,4,44,,,,500,,,,,wkproc,blue,0,n,x,866,blue,exp1,9,
finals counterbalance,1,1,"<?xml version=""1.0""?>\n<Clock xmlns:dt=""urn:schemas-microsoft-com:datatypes""><Description dt:dt=""string"">E-Prime Primary Realtime Clock</Description><StartTime><Timestamp dt:dt=""int"">0</Timestamp><DateUtc dt:dt=""string"">2020-12-28T02:53:28Z</DateUtc></StartTime><FrequencyChanges><FrequencyChange><Frequency dt:dt=""r8"">3117812</Frequency><Timestamp dt:dt=""r8"">8981153029</Timestamp><Current dt:dt=""r8"">0</Current><DateUtc dt:dt=""string"">2020-12-28T02:53:28Z</DateUtc></FrequencyChange></FrequencyChanges></Clock>\n",60.002,1,391418592,12-28-2020,10:53:28,上午 02:53:28,67,x,n,olive,red,navy,maroon,red,black,yellow,olive,cyan,purple,blue,gray,green,gray,yellow,purple,x,gray,olive,cyan,red,purple,blue,black,yellow,8,,magenta,500,9,4,45,,,,500,,,,,wkproc,purple,1,x,x,705,magenta,exp1,7,
finals counterbalance,1,1,"<?xml version=""1.0""?>\n<Clock xmlns:dt=""urn:schemas-microsoft-com:datatypes""><Description dt:dt=""string"">E-Prime Primary Realtime Clock</Description><StartTime><Timestamp dt:dt=""int"">0</Timestamp><DateUtc dt:dt=""string"">2020-12-28T02:53:28Z</DateUtc></StartTime><FrequencyChanges><FrequencyChange><Frequency dt:dt=""r8"">3117812</Frequency><Timestamp dt:dt=""r8"">8981153029</Timestamp><Current dt:dt=""r8"">0</Current><DateUtc dt:dt=""string"">2020-12-28T02:53:28Z</DateUtc></FrequencyChange></FrequencyChanges></Clock>\n",60.002,1,391418592,12-28-2020,10:53:28,上午 02:53:28,68,x,n,maroon,black,green,olive,olive,gray,magenta,yellow,blue,navy,green,cyan,magenta,red,navy,cyan,x,cyan,yellow,blue,olive,navy,green,gray,magenta,5,,maroon,500,10,4,46,,,,1500,,,,,wkproc,red,1,x,x,682,maroon,exp1,11,
finals counterbalance,1,1,"<?xml version=""1.0""?>\n<Clock xmlns:dt=""urn:schemas-microsoft-com:datatypes""><Description dt:dt=""string"">E-Prime Primary Realtime Clock</Description><StartTime><Timestamp dt:dt=""int"">0</Timestamp><DateUtc dt:dt=""string"">2020-12-28T02:53:28Z</DateUtc></StartTime><FrequencyChanges><FrequencyChange><Frequency dt:dt=""r8"">3117812</Frequency><Timestamp dt:dt=""r8"">8981153029</Timestamp><Current dt:dt=""r8"">0</Current><DateUtc dt:dt=""string"">2020-12-28T02:53:28Z</DateUtc></FrequencyChange></FrequencyChanges></Clock>\n",60.002,1,391418592,12-28-2020,10:53:28,上午 02:53:28,69,n,n,gray,maroon,purple,magenta,magenta,navy,olive,maroon,purple,yellow,black,gray,yellow,black,navy,olive,x,navy,maroon,green,gray,blue,cyan,purple,red,7,,olive,100,1,4,47,,,,500,,,,,wkproc,yellow,1,n,n,966,yellow,exp1,18,
finals counterbalance,1,1,"<?xml version=""1.0""?>\n<Clock xmlns:dt=""urn:schemas-microsoft-com:datatypes""><Description dt:dt=""string"">E-Prime Primary Realtime Clock</Description><StartTime><Timestamp dt:dt=""int"">0</Timestamp><DateUtc dt:dt=""string"">2020-12-28T02:53:28Z</DateUtc></StartTime><FrequencyChanges><FrequencyChange><Frequency dt:dt=""r8"">3117812</Frequency><Timestamp dt:dt=""r8"">8981153029</Timestamp><Current dt:dt=""r8"">0</Current><DateUtc dt:dt=""string"">2020-12-28T02:53:28Z</DateUtc></FrequencyChange></FrequencyChanges></Clock>\n",60.002,1,391418592,12-28-2020,10:53:28,上午 02:53:28,70,x,n,red,cyan,blue,gray,black,yellow,green,navy,gray,maroon,magenta,blue,olive,maroon,yellow,magenta,x,blue,navy,gray,black,maroon,magenta,yellow,green,11,,cyan,100,8,4,48,,,,1500,,,,,wkproc,maroon,1,x,x,649,cyan,exp1,17,
finals counterbalance,1,1,"<?xml version=""1.0""?>\n<Clock xmlns:dt=""urn:schemas-microsoft-com:datatypes""><Description dt:dt=""string"">E-Prime Primary Realtime Clock</Description><StartTime><Timestamp dt:dt=""int"">0</Timestamp><DateUtc dt:dt=""string"">2020-12-28T02:53:28Z</DateUtc></StartTime><FrequencyChanges><FrequencyChange><Frequency dt:dt=""r8"">3117812</Frequency><Timestamp dt:dt=""r8"">8981153029</Timestamp><Current dt:dt=""r8"">0</Current><DateUtc dt:dt=""string"">2020-12-28T02:53:28Z</DateUtc></FrequencyChange></FrequencyChanges></Clock>\n",60.002,1,391418592,12-28-2020,10:53:28,上午 02:53:28,71,x,n,yellow,maroon,black,purple,green,magenta,yellow,navy,olive,maroon,red,purple,gray,navy,cyan,magenta,x,purple,navy,olive,green,maroon,red,magenta,yellow,18,,black,100,8,5,49,,,,1500,,,,,wkproc,gray,0,x,n,865,black,exp1,22,
finals counterbalance,1,1,"<?xml version=""1.0""?>\n<Clock xmlns:dt=""urn:schemas-microsoft-com:datatypes""><Description dt:dt=""string"">E-Prime Primary Realtime Clock</Description><StartTime><Timestamp dt:dt=""int"">0</Timestamp><DateUtc dt:dt=""string"">2020-12-28T02:53:28Z</DateUtc></StartTime><FrequencyChanges><FrequencyChange><Frequency dt:dt=""r8"">3117812</Frequency><Timestamp dt:dt=""r8"">8981153029</Timestamp><Current dt:dt=""r8"">0</Current><DateUtc dt:dt=""string"">2020-12-28T02:53:28Z</DateUtc></FrequencyChange></FrequencyChanges></Clock>\n",60.002,1,391418592,12-28-2020,10:53:28,上午 02:53:28,72,n,n,purple,yellow,magenta,cyan,cyan,maroon,gray,yellow,magenta,navy,black,purple,navy,black,maroon,gray,x,olive,black,blue,gray,yellow,purple,red,cyan,20,,magenta,100,1,5,50,,,,500,,,,,wkproc,gray,0,n,x,947,gray,exp1,10,
finals counterbalance,1,1,"<?xml version=""1.0""?>\n<Clock xmlns:dt=""urn:schemas-microsoft-com:datatypes""><Description dt:dt=""string"">E-Prime Primary Realtime Clock</Description><StartTime><Timestamp dt:dt=""int"">0</Timestamp><DateUtc dt:dt=""string"">2020-12-28T02:53:28Z</DateUtc></StartTime><FrequencyChanges><FrequencyChange><Frequency dt:dt=""r8"">3117812</Frequency><Timestamp dt:dt=""r8"">8981153029</Timestamp><Current dt:dt=""r8"">0</Current><DateUtc dt:dt=""string"">2020-12-28T02:53:28Z</DateUtc></FrequencyChange></FrequencyChanges></Clock>\n",60.002,1,391418592,12-28-2020,10:53:28,上午 02:53:28,73,x,n,olive,red,navy,maroon,cyan,green,maroon,olive,yellow,black,gray,magenta,green,gray,yellow,purple,x,magenta,olive,yellow,cyan,black,gray,green,maroon,21,,blue,900,12,5,51,,,,1500,,,,,wkproc,purple,1,x,x,640,blue,exp1,7,
finals counterbalance,1,1,"<?xml version=""1.0""?>\n<Clock xmlns:dt=""urn:schemas-microsoft-com:datatypes""><Description dt:dt=""string"">E-Prime Primary Realtime Clock</Description><StartTime><Timestamp dt:dt=""int"">0</Timestamp><DateUtc dt:dt=""string"">2020-12-28T02:53:28Z</DateUtc></StartTime><FrequencyChanges><FrequencyChange><Frequency dt:dt=""r8"">3117812</Frequency><Timestamp dt:dt=""r8"">8981153029</Timestamp><Current dt:dt=""r8"">0</Current><DateUtc dt:dt=""string"">2020-12-28T02:53:28Z</DateUtc></FrequencyChange></FrequencyChanges></Clock>\n",60.002,1,391418592,12-28-2020,10:53:28,上午 02:53:28,74,n,n,green,red,magenta,blue,blue,purple,black,red,magenta,cyan,olive,green,cyan,olive,purple,black,x,black,olive,blue,yellow,maroon,purple,magenta,navy,10,,gray,900,5,5,52,,,,500,,,,,wkproc,cyan,1,n,n,741,cyan,exp1,16,
finals counterbalance,1,1,"<?xml version=""1.0""?>\n<Clock xmlns:dt=""urn:schemas-microsoft-com:datatypes""><Description dt:dt=""string"">E-Prime Primary Realtime Clock</Description><StartTime><Timestamp dt:dt=""int"">0</Timestamp><DateUtc dt:dt=""string"">2020-12-28T02:53:28Z</DateUtc></StartTime><FrequencyChanges><FrequencyChange><Frequency dt:dt=""r8"">3117812</Frequency><Timestamp dt:dt=""r8"">8981153029</Timestamp><Current dt:dt=""r8"">0</Current><DateUtc dt:dt=""string"">2020-12-28T02:53:28Z</DateUtc></FrequencyChange></FrequencyChanges></Clock>\n",60.002,1,391418592,12-28-2020,10:53:28,上午 02:53:28,75,x,n,gray,maroon,purple,magenta,gray,red,cyan,black,blue,yellow,purple,olive,yellow,black,navy,olive,x,olive,black,blue,gray,yellow,purple,red,cyan,20,,magenta,500,10,5,53,,,,1500,,,,,wkproc,yellow,0,x,n,529,magenta,exp1,18,
finals counterbalance,1,1,"<?xml version=""1.0""?>\n<Clock xmlns:dt=""urn:schemas-microsoft-com:datatypes""><Description dt:dt=""string"">E-Prime Primary Realtime Clock</Description><StartTime><Timestamp dt:dt=""int"">0</Timestamp><DateUtc dt:dt=""string"">2020-12-28T02:53:28Z</DateUtc></StartTime><FrequencyChanges><FrequencyChange><Frequency dt:dt=""r8"">3117812</Frequency><Timestamp dt:dt=""r8"">8981153029</Timestamp><Current dt:dt=""r8"">0</Current><DateUtc dt:dt=""string"">2020-12-28T02:53:28Z</DateUtc></FrequencyChange></FrequencyChanges></Clock>\n",60.002,1,391418592,12-28-2020,10:53:28,上午 02:53:28,76,n,n,purple,yellow,magenta,cyan,cyan,maroon,gray,yellow,magenta,navy,black,purple,navy,black,maroon,gray,x,cyan,yellow,blue,olive,navy,green,gray,magenta,5,,maroon,100,2,5,54,,,,1500,,,,,wkproc,gray,1,n,n,524,gray,exp1,10,
finals counterbalance,1,1,"<?xml version=""1.0""?>\n<Clock xmlns:dt=""urn:schemas-microsoft-com:datatypes""><Description dt:dt=""string"">E-Prime Primary Realtime Clock</Description><StartTime><Timestamp dt:dt=""int"">0</Timestamp><DateUtc dt:dt=""string"">2020-12-28T02:53:28Z</DateUtc></StartTime><FrequencyChanges><FrequencyChange><Frequency dt:dt=""r8"">3117812</Frequency><Timestamp dt:dt=""r8"">8981153029</Timestamp><Current dt:dt=""r8"">0</Current><DateUtc dt:dt=""string"">2020-12-28T02:53:28Z</DateUtc></FrequencyChange></FrequencyChanges></Clock>\n",60.002,1,391418592,12-28-2020,10:53:28,上午 02:53:28,77,x,n,yellow,green,navy,cyan,green,magenta,black,purple,yellow,cyan,maroon,red,black,olive,gray,blue,x,red,purple,yellow,green,cyan,maroon,magenta,black,2,,navy,900,11,5,55,,,,500,,,,,wkproc,navy,1,x,x,751,navy,exp1,1,
finals counterbalance,1,1,"<?xml version=""1.0""?>\n<Clock xmlns:dt=""urn:schemas-microsoft-com:datatypes""><Description dt:dt=""string"">E-Prime Primary Realtime Clock</Description><StartTime><Timestamp dt:dt=""int"">0</Timestamp><DateUtc dt:dt=""string"">2020-12-28T02:53:28Z</DateUtc></StartTime><FrequencyChanges><FrequencyChange><Frequency dt:dt=""r8"">3117812</Frequency><Timestamp dt:dt=""r8"">8981153029</Timestamp><Current dt:dt=""r8"">0</Current><DateUtc dt:dt=""string"">2020-12-28T02:53:28Z</DateUtc></FrequencyChange></FrequencyChanges></Clock>\n",60.002,1,391418592,12-28-2020,10:53:28,上午 02:53:28,78,x,n,green,gray,maroon,magenta,gray,blue,green,magenta,purple,yellow,navy,black,blue,yellow,red,purple,x,black,magenta,purple,gray,yellow,navy,blue,green,1,,red,500,9,5,56,,,,500,,,,,wkproc,green,1,x,x,629,red,exp1,3,
finals counterbalance,1,1,"<?xml version=""1.0""?>\n<Clock xmlns:dt=""urn:schemas-microsoft-com:datatypes""><Description dt:dt=""string"">E-Prime Primary Realtime Clock</Description><StartTime><Timestamp dt:dt=""int"">0</Timestamp><DateUtc dt:dt=""string"">2020-12-28T02:53:28Z</DateUtc></StartTime><FrequencyChanges><FrequencyChange><Frequency dt:dt=""r8"">3117812</Frequency><Timestamp dt:dt=""r8"">8981153029</Timestamp><Current dt:dt=""r8"">0</Current><DateUtc dt:dt=""string"">2020-12-28T02:53:28Z</DateUtc></FrequencyChange></FrequencyChanges></Clock>\n",60.002,1,391418592,12-28-2020,10:53:28,上午 02:53:28,79,x,n,maroon,black,green,olive,blue,green,olive,maroon,cyan,red,navy,gray,magenta,red,navy,cyan,x,gray,maroon,cyan,blue,red,navy,green,olive,12,,purple,100,7,5,57,,,,500,,,,,wkproc,red,1,x,x,807,purple,exp1,11,
finals counterbalance,1,1,"<?xml version=""1.0""?>\n<Clock xmlns:dt=""urn:schemas-microsoft-com:datatypes""><Description dt:dt=""string"">E-Prime Primary Realtime Clock</Description><StartTime><Timestamp dt:dt=""int"">0</Timestamp><DateUtc dt:dt=""string"">2020-12-28T02:53:28Z</DateUtc></StartTime><FrequencyChanges><FrequencyChange><Frequency dt:dt=""r8"">3117812</Frequency><Timestamp dt:dt=""r8"">8981153029</Timestamp><Current dt:dt=""r8"">0</Current><DateUtc dt:dt=""string"">2020-12-28T02:53:28Z</DateUtc></FrequencyChange></FrequencyChanges></Clock>\n",60.002,1,391418592,12-28-2020,10:53:28,上午 02:53:28,80,n,n,gray,red,yellow,green,green,magenta,maroon,red,yellow,purple,blue,gray,purple,blue,magenta,maroon,x,green,purple,yellow,magenta,red,olive,navy,maroon,6,,black,900,6,5,58,,,,1500,,,,,wkproc,green,1,n,n,1529,green,exp1,15,
finals counterbalance,1,1,"<?xml version=""1.0""?>\n<Clock xmlns:dt=""urn:schemas-microsoft-com:datatypes""><Description dt:dt=""string"">E-Prime Primary Realtime Clock</Description><StartTime><Timestamp dt:dt=""int"">0</Timestamp><DateUtc dt:dt=""string"">2020-12-28T02:53:28Z</DateUtc></StartTime><FrequencyChanges><FrequencyChange><Frequency dt:dt=""r8"">3117812</Frequency><Timestamp dt:dt=""r8"">8981153029</Timestamp><Current dt:dt=""r8"">0</Current><DateUtc dt:dt=""string"">2020-12-28T02:53:28Z</DateUtc></FrequencyChange></FrequencyChanges></Clock>\n",60.002,1,391418592,12-28-2020,10:53:28,上午 02:53:28,81,n,n,yellow,maroon,black,purple,purple,cyan,magenta,maroon,black,gray,navy,yellow,gray,navy,cyan,magenta,x,purple,magenta,maroon,red,black,cyan,green,yellow,14,,navy,500,4,5,59,,,,1500,,,,,wkproc,gray,1,n,n,1468,gray,exp1,22,
finals counterbalance,1,1,"<?xml version=""1.0""?>\n<Clock xmlns:dt=""urn:schemas-microsoft-com:datatypes""><Description dt:dt=""string"">E-Prime Primary Realtime Clock</Description><StartTime><Timestamp dt:dt=""int"">0</Timestamp><DateUtc dt:dt=""string"">2020-12-28T02:53:28Z</DateUtc></StartTime><FrequencyChanges><FrequencyChange><Frequency dt:dt=""r8"">3117812</Frequency><Timestamp dt:dt=""r8"">8981153029</Timestamp><Current dt:dt=""r8"">0</Current><DateUtc dt:dt=""string"">2020-12-28T02:53:28Z</DateUtc></FrequencyChange></FrequencyChanges></Clock>\n",60.002,1,391418592,12-28-2020,10:53:28,上午 02:53:28,82,n,n,olive,black,gray,blue,blue,green,magenta,black,gray,purple,red,olive,purple,red,green,magenta,x,navy,maroon,green,gray,blue,cyan,purple,red,7,,olive,500,3,5,60,,,,500,,,,,wkproc,olive,0,n,x,841,olive,exp1,2,
finals counterbalance,1,1,"<?xml version=""1.0""?>\n<Clock xmlns:dt=""urn:schemas-microsoft-com:datatypes""><Description dt:dt=""string"">E-Prime Primary Realtime Clock</Description><StartTime><Timestamp dt:dt=""int"">0</Timestamp><DateUtc dt:dt=""string"">2020-12-28T02:53:28Z</DateUtc></StartTime><FrequencyChanges><FrequencyChange><Frequency dt:dt=""r8"">3117812</Frequency><Timestamp dt:dt=""r8"">8981153029</Timestamp><Current dt:dt=""r8"">0</Current><DateUtc dt:dt=""string"">2020-12-28T02:53:28Z</DateUtc></FrequencyChange></FrequencyChanges></Clock>\n",60.002,1,391418592,12-28-2020,10:53:28,上午 02:53:28,83,x,n,cyan,blue,black,red,gray,purple,red,maroon,green,blue,cyan,navy,maroon,gray,navy,purple,x,navy,maroon,green,gray,blue,cyan,purple,red,,7,olive,900,,,,11,1,1,500,,,,,wkproc,blue,0,x,n,996,olive,exp2,,21
finals counterbalance,1,1,"<?xml version=""1.0""?>\n<Clock xmlns:dt=""urn:schemas-microsoft-com:datatypes""><Description dt:dt=""string"">E-Prime Primary Realtime Clock</Description><StartTime><Timestamp dt:dt=""int"">0</Timestamp><DateUtc dt:dt=""string"">2020-12-28T02:53:28Z</DateUtc></StartTime><FrequencyChanges><FrequencyChange><Frequency dt:dt=""r8"">3117812</Frequency><Timestamp dt:dt=""r8"">8981153029</Timestamp><Current dt:dt=""r8"">0</Current><DateUtc dt:dt=""string"">2020-12-28T02:53:28Z</DateUtc></FrequencyChange></FrequencyChanges></Clock>\n",60.002,1,391418592,12-28-2020,10:53:28,上午 02:53:28,84,n,n,gray,red,magenta,yellow,yellow,cyan,olive,red,magenta,maroon,blue,gray,maroon,blue,cyan,olive,x,maroon,green,navy,gray,olive,red,blue,cyan,,24,purple,500,,,,3,1,2,500,,,,,wkproc,maroon,1,n,n,836,maroon,exp2,,5
finals counterbalance,1,1,"<?xml version=""1.0""?>\n<Clock xmlns:dt=""urn:schemas-microsoft-com:datatypes""><Description dt:dt=""string"">E-Prime Primary Realtime Clock</Description><StartTime><Timestamp dt:dt=""int"">0</Timestamp><DateUtc dt:dt=""string"">2020-12-28T02:53:28Z</DateUtc></StartTime><FrequencyChanges><FrequencyChange><Frequency dt:dt=""r8"">3117812</Frequency><Timestamp dt:dt=""r8"">8981153029</Timestamp><Current dt:dt=""r8"">0</Current><DateUtc dt:dt=""string"">2020-12-28T02:53:28Z</DateUtc></FrequencyChange></FrequencyChanges></Clock>\n",60.002,1,391418592,12-28-2020,10:53:28,上午 02:53:28,85,x,n,green,gray,maroon,magenta,black,purple,red,cyan,olive,green,gray,maroon,blue,yellow,red,purple,x,maroon,cyan,olive,black,green,gray,purple,red,,3,yellow,500,,,,10,1,3,1500,,,,,wkproc,green,1,x,x,757,yellow,exp2,,3
finals counterbalance,1,1,"<?xml version=""1.0""?>\n<Clock xmlns:dt=""urn:schemas-microsoft-com:datatypes""><Description dt:dt=""string"">E-Prime Primary Realtime Clock</Description><StartTime><Timestamp dt:dt=""int"">0</Timestamp><DateUtc dt:dt=""string"">2020-12-28T02:53:28Z</DateUtc></StartTime><FrequencyChanges><FrequencyChange><Frequency dt:dt=""r8"">3117812</Frequency><Timestamp dt:dt=""r8"">8981153029</Timestamp><Current dt:dt=""r8"">0</Current><DateUtc dt:dt=""string"">2020-12-28T02:53:28Z</DateUtc></FrequencyChange></FrequencyChanges></Clock>\n",60.002,1,391418592,12-28-2020,10:53:28,上午 02:53:28,86,x,n,magenta,gray,olive,navy,magenta,navy,maroon,purple,yellow,red,olive,green,black,purple,maroon,yellow,x,green,purple,yellow,magenta,red,olive,navy,maroon,,6,black,900,,,,12,1,4,1500,,,,,wkproc,yellow,1,x,x,1063,black,exp2,,6
finals counterbalance,1,1,"<?xml version=""1.0""?>\n<Clock xmlns:dt=""urn:schemas-microsoft-com:datatypes""><Description dt:dt=""string"">E-Prime Primary Realtime Clock</Description><StartTime><Timestamp dt:dt=""int"">0</Timestamp><DateUtc dt:dt=""string"">2020-12-28T02:53:28Z</DateUtc></StartTime><FrequencyChanges><FrequencyChange><Frequency dt:dt=""r8"">3117812</Frequency><Timestamp dt:dt=""r8"">8981153029</Timestamp><Current dt:dt=""r8"">0</Current><DateUtc dt:dt=""string"">2020-12-28T02:53:28Z</DateUtc></FrequencyChange></FrequencyChanges></Clock>\n",60.002,1,391418592,12-28-2020,10:53:28,上午 02:53:28,87,n,n,black,green,red,olive,olive,blue,gray,green,red,magenta,purple,black,magenta,purple,blue,gray,x,magenta,olive,yellow,cyan,black,gray,green,maroon,,21,blue,900,,,,5,1,5,500,,,,,wkproc,olive,1,n,n,786,olive,exp2,,14
finals counterbalance,1,1,"<?xml version=""1.0""?>\n<Clock xmlns:dt=""urn:schemas-microsoft-com:datatypes""><Description dt:dt=""string"">E-Prime Primary Realtime Clock</Description><StartTime><Timestamp dt:dt=""int"">0</Timestamp><DateUtc dt:dt=""string"">2020-12-28T02:53:28Z</DateUtc></StartTime><FrequencyChanges><FrequencyChange><Frequency dt:dt=""r8"">3117812</Frequency><Timestamp dt:dt=""r8"">8981153029</Timestamp><Current dt:dt=""r8"">0</Current><DateUtc dt:dt=""string"">2020-12-28T02:53:28Z</DateUtc></FrequencyChange></FrequencyChanges></Clock>\n",60.002,1,391418592,12-28-2020,10:53:28,上午 02:53:28,88,n,n,gray,red,yellow,green,green,magenta,maroon,red,yellow,purple,blue,gray,purple,blue,magenta,maroon,x,magenta,blue,black,red,yellow,maroon,cyan,gray,,4,green,100,,,,1,1,6,500,,,,,wkproc,green,1,n,n,658,green,exp2,,15
finals counterbalance,1,1,"<?xml version=""1.0""?>\n<Clock xmlns:dt=""urn:schemas-microsoft-com:datatypes""><Description dt:dt=""string"">E-Prime Primary Realtime Clock</Description><StartTime><Timestamp dt:dt=""int"">0</Timestamp><DateUtc dt:dt=""string"">2020-12-28T02:53:28Z</DateUtc></StartTime><FrequencyChanges><FrequencyChange><Frequency dt:dt=""r8"">3117812</Frequency><Timestamp dt:dt=""r8"">8981153029</Timestamp><Current dt:dt=""r8"">0</Current><DateUtc dt:dt=""string"">2020-12-28T02:53:28Z</DateUtc></FrequencyChange></FrequencyChanges></Clock>\n",60.002,1,391418592,12-28-2020,10:53:28,上午 02:53:28,89,x,n,navy,olive,cyan,yellow,green,magenta,black,purple,yellow,cyan,maroon,red,blue,magenta,purple,red,x,red,purple,yellow,green,cyan,maroon,magenta,black,,2,navy,500,,,,9,1,7,500,,,,,wkproc,magenta,1,x,x,792,navy,exp2,,20
finals counterbalance,1,1,"<?xml version=""1.0""?>\n<Clock xmlns:dt=""urn:schemas-microsoft-com:datatypes""><Description dt:dt=""string"">E-Prime Primary Realtime Clock</Description><StartTime><Timestamp dt:dt=""int"">0</Timestamp><DateUtc dt:dt=""string"">2020-12-28T02:53:28Z</DateUtc></StartTime><FrequencyChanges><FrequencyChange><Frequency dt:dt=""r8"">3117812</Frequency><Timestamp dt:dt=""r8"">8981153029</Timestamp><Current dt:dt=""r8"">0</Current><DateUtc dt:dt=""string"">2020-12-28T02:53:28Z</DateUtc></FrequencyChange></FrequencyChanges></Clock>\n",60.002,1,391418592,12-28-2020,10:53:28,上午 02:53:28,90,n,n,yellow,navy,red,purple,purple,olive,blue,navy,red,magenta,cyan,yellow,magenta,cyan,olive,blue,x,blue,navy,gray,black,maroon,magenta,yellow,green,,11,cyan,100,,,,2,1,8,1500,,,,,wkproc,magenta,0,n,x,775,magenta,exp2,,8
finals counterbalance,1,1,"<?xml version=""1.0""?>\n<Clock xmlns:dt=""urn:schemas-microsoft-com:datatypes""><Description dt:dt=""string"">E-Prime Primary Realtime Clock</Description><StartTime><Timestamp dt:dt=""int"">0</Timestamp><DateUtc dt:dt=""string"">2020-12-28T02:53:28Z</DateUtc></StartTime><FrequencyChanges><FrequencyChange><Frequency dt:dt=""r8"">3117812</Frequency><Timestamp dt:dt=""r8"">8981153029</Timestamp><Current dt:dt=""r8"">0</Current><DateUtc dt:dt=""string"">2020-12-28T02:53:28Z</DateUtc></FrequencyChange></FrequencyChanges></Clock>\n",60.002,1,391418592,12-28-2020,10:53:28,上午 02:53:28,91,x,n,maroon,black,green,olive,black,yellow,blue,magenta,purple,navy,maroon,olive,magenta,red,navy,cyan,x,olive,magenta,purple,black,navy,maroon,yellow,blue,,22,gray,100,,,,7,1,9,500,,,,,wkproc,red,1,x,x,1286,gray,exp2,,11
finals counterbalance,1,1,"<?xml version=""1.0""?>\n<Clock xmlns:dt=""urn:schemas-microsoft-com:datatypes""><Description dt:dt=""string"">E-Prime Primary Realtime Clock</Description><StartTime><Timestamp dt:dt=""int"">0</Timestamp><DateUtc dt:dt=""string"">2020-12-28T02:53:28Z</DateUtc></StartTime><FrequencyChanges><FrequencyChange><Frequency dt:dt=""r8"">3117812</Frequency><Timestamp dt:dt=""r8"">8981153029</Timestamp><Current dt:dt=""r8"">0</Current><DateUtc dt:dt=""string"">2020-12-28T02:53:28Z</DateUtc></FrequencyChange></FrequencyChanges></Clock>\n",60.002,1,391418592,12-28-2020,10:53:28,上午 02:53:28,92,n,n,black,navy,red,maroon,maroon,olive,green,navy,red,cyan,magenta,black,cyan,magenta,olive,green,x,purple,navy,olive,green,maroon,red,magenta,yellow,,18,black,900,,,,6,1,10,1500,,,,,wkproc,red,0,n,x,902,red,exp2,,23
finals counterbalance,1,1,"<?xml version=""1.0""?>\n<Clock xmlns:dt=""urn:schemas-microsoft-com:datatypes""><Description dt:dt=""string"">E-Prime Primary Realtime Clock</Description><StartTime><Timestamp dt:dt=""int"">0</Timestamp><DateUtc dt:dt=""string"">2020-12-28T02:53:28Z</DateUtc></StartTime><FrequencyChanges><FrequencyChange><Frequency dt:dt=""r8"">3117812</Frequency><Timestamp dt:dt=""r8"">8981153029</Timestamp><Current dt:dt=""r8"">0</Current><DateUtc dt:dt=""string"">2020-12-28T02:53:28Z</DateUtc></FrequencyChange></FrequencyChanges></Clock>\n",60.002,1,391418592,12-28-2020,10:53:28,上午 02:53:28,93,x,n,gray,maroon,purple,magenta,maroon,black,olive,purple,gray,red,green,cyan,yellow,black,navy,olive,x,cyan,purple,gray,maroon,red,green,black,olive,,15,yellow,100,,,,8,1,11,1500,,,,,wkproc,yellow,1,x,x,730,yellow,exp2,,18
finals counterbalance,1,1,"<?xml version=""1.0""?>\n<Clock xmlns:dt=""urn:schemas-microsoft-com:datatypes""><Description dt:dt=""string"">E-Prime Primary Realtime Clock</Description><StartTime><Timestamp dt:dt=""int"">0</Timestamp><DateUtc dt:dt=""string"">2020-12-28T02:53:28Z</DateUtc></StartTime><FrequencyChanges><FrequencyChange><Frequency dt:dt=""r8"">3117812</Frequency><Timestamp dt:dt=""r8"">8981153029</Timestamp><Current dt:dt=""r8"">0</Current><DateUtc dt:dt=""string"">2020-12-28T02:53:28Z</DateUtc></FrequencyChange></FrequencyChanges></Clock>\n",60.002,1,391418592,12-28-2020,10:53:28,上午 02:53:28,94,n,n,green,red,magenta,blue,blue,purple,black,red,magenta,cyan,olive,green,cyan,olive,purple,black,x,cyan,yellow,blue,olive,navy,green,gray,magenta,,5,maroon,500,,,,4,1,12,1500,,,,,wkproc,cyan,1,n,n,652,cyan,exp2,,16
finals counterbalance,1,1,"<?xml version=""1.0""?>\n<Clock xmlns:dt=""urn:schemas-microsoft-com:datatypes""><Description dt:dt=""string"">E-Prime Primary Realtime Clock</Description><StartTime><Timestamp dt:dt=""int"">0</Timestamp><DateUtc dt:dt=""string"">2020-12-28T02:53:28Z</DateUtc></StartTime><FrequencyChanges><FrequencyChange><Frequency dt:dt=""r8"">3117812</Frequency><Timestamp dt:dt=""r8"">8981153029</Timestamp><Current dt:dt=""r8"">0</Current><DateUtc dt:dt=""string"">2020-12-28T02:53:28Z</DateUtc></FrequencyChange></FrequencyChanges></Clock>\n",60.002,1,391418592,12-28-2020,10:53:28,上午 02:53:28,95,x,n,red,yellow,gray,olive,navy,gray,green,purple,cyan,red,blue,maroon,purple,green,maroon,navy,x,maroon,purple,cyan,navy,red,blue,gray,green,,19,olive,100,,,,8,2,13,1500,,,,,wkproc,purple,1,x,x,692,olive,exp2,,19
finals counterbalance,1,1,"<?xml version=""1.0""?>\n<Clock xmlns:dt=""urn:schemas-microsoft-com:datatypes""><Description dt:dt=""string"">E-Prime Primary Realtime Clock</Description><StartTime><Timestamp dt:dt=""int"">0</Timestamp><DateUtc dt:dt=""string"">2020-12-28T02:53:28Z</DateUtc></StartTime><FrequencyChanges><FrequencyChange><Frequency dt:dt=""r8"">3117812</Frequency><Timestamp dt:dt=""r8"">8981153029</Timestamp><Current dt:dt=""r8"">0</Current><DateUtc dt:dt=""string"">2020-12-28T02:53:28Z</DateUtc></FrequencyChange></FrequencyChanges></Clock>\n",60.002,1,391418592,12-28-2020,10:53:28,上午 02:53:28,96,x,n,purple,blue,red,maroon,black,gray,purple,blue,navy,green,yellow,magenta,olive,green,black,navy,x,magenta,blue,navy,black,green,yellow,gray,purple,,13,red,900,,,,12,2,14,1500,,,,,wkproc,black,1,x,x,874,red,exp2,,12
finals counterbalance,1,1,"<?xml version=""1.0""?>\n<Clock xmlns:dt=""urn:schemas-microsoft-com:datatypes""><Description dt:dt=""string"">E-Prime Primary Realtime Clock</Description><StartTime><Timestamp dt:dt=""int"">0</Timestamp><DateUtc dt:dt=""string"">2020-12-28T02:53:28Z</DateUtc></StartTime><FrequencyChanges><FrequencyChange><Frequency dt:dt=""r8"">3117812</Frequency><Timestamp dt:dt=""r8"">8981153029</Timestamp><Current dt:dt=""r8"">0</Current><DateUtc dt:dt=""string"">2020-12-28T02:53:28Z</DateUtc></FrequencyChange></FrequencyChanges></Clock>\n",60.002,1,391418592,12-28-2020,10:53:28,上午 02:53:28,97,x,n,blue,green,black,purple,blue,black,gray,yellow,magenta,green,maroon,navy,olive,magenta,red,cyan,x,navy,yellow,magenta,blue,green,maroon,black,gray,,23,cyan,500,,,,9,2,15,500,,,,,wkproc,cyan,1,x,x,713,cyan,exp2,,4
finals counterbalance,1,1,"<?xml version=""1.0""?>\n<Clock xmlns:dt=""urn:schemas-microsoft-com:datatypes""><Description dt:dt=""string"">E-Prime Primary Realtime Clock</Description><StartTime><Timestamp dt:dt=""int"">0</Timestamp><DateUtc dt:dt=""string"">2020-12-28T02:53:28Z</DateUtc></StartTime><FrequencyChanges><FrequencyChange><Frequency dt:dt=""r8"">3117812</Frequency><Timestamp dt:dt=""r8"">8981153029</Timestamp><Current dt:dt=""r8"">0</Current><DateUtc dt:dt=""string"">2020-12-28T02:53:28Z</DateUtc></FrequencyChange></FrequencyChanges></Clock>\n",60.002,1,391418592,12-28-2020,10:53:28,上午 02:53:28,98,x,n,red,cyan,blue,gray,yellow,magenta,navy,olive,blue,maroon,purple,black,olive,maroon,yellow,magenta,x,black,olive,blue,yellow,maroon,purple,magenta,navy,,10,gray,900,,,,11,2,16,500,,,,,wkproc,maroon,1,x,x,979,gray,exp2,,17
finals counterbalance,1,1,"<?xml version=""1.0""?>\n<Clock xmlns:dt=""urn:schemas-microsoft-com:datatypes""><Description dt:dt=""string"">E-Prime Primary Realtime Clock</Description><StartTime><Timestamp dt:dt=""int"">0</Timestamp><DateUtc dt:dt=""string"">2020-12-28T02:53:28Z</DateUtc></StartTime><FrequencyChanges><FrequencyChange><Frequency dt:dt=""r8"">3117812</Frequency><Timestamp dt:dt=""r8"">8981153029</Timestamp><Current dt:dt=""r8"">0</Current><DateUtc dt:dt=""string"">2020-12-28T02:53:28Z</DateUtc></FrequencyChange></FrequencyChanges></Clock>\n",60.002,1,391418592,12-28-2020,10:53:28,上午 02:53:28,99,n,n,olive,black,gray,blue,blue,green,magenta,black,gray,purple,red,olive,purple,red,green,magenta,x,black,magenta,purple,gray,yellow,navy,blue,green,,1,red,100,,,,2,2,17,1500,,,,,wkproc,olive,1,n,n,758,olive,exp2,,2
finals counterbalance,1,1,"<?xml version=""1.0""?>\n<Clock xmlns:dt=""urn:schemas-microsoft-com:datatypes""><Description dt:dt=""string"">E-Prime Primary Realtime Clock</Description><StartTime><Timestamp dt:dt=""int"">0</Timestamp><DateUtc dt:dt=""string"">2020-12-28T02:53:28Z</DateUtc></StartTime><FrequencyChanges><FrequencyChange><Frequency dt:dt=""r8"">3117812</Frequency><Timestamp dt:dt=""r8"">8981153029</Timestamp><Current dt:dt=""r8"">0</Current><DateUtc dt:dt=""string"">2020-12-28T02:53:28Z</DateUtc></FrequencyChange></FrequencyChanges></Clock>\n",60.002,1,391418592,12-28-2020,10:53:28,上午 02:53:28,100,x,n,olive,red,navy,maroon,red,black,yellow,olive,cyan,purple,blue,gray,green,gray,yellow,purple,x,gray,olive,cyan,red,purple,blue,black,yellow,,8,magenta,500,,,,10,2,18,1500,,,,,wkproc,purple,1,x,x,685,magenta,exp2,,7
finals counterbalance,1,1,"<?xml version=""1.0""?>\n<Clock xmlns:dt=""urn:schemas-microsoft-com:datatypes""><Description dt:dt=""string"">E-Prime Primary Realtime Clock</Description><StartTime><Timestamp dt:dt=""int"">0</Timestamp><DateUtc dt:dt=""string"">2020-12-28T02:53:28Z</DateUtc></StartTime><FrequencyChanges><FrequencyChange><Frequency dt:dt=""r8"">3117812</Frequency><Timestamp dt:dt=""r8"">8981153029</Timestamp><Current dt:dt=""r8"">0</Current><DateUtc dt:dt=""string"">2020-12-28T02:53:28Z</DateUtc></FrequencyChange></FrequencyChanges></Clock>\n",60.002,1,391418592,12-28-2020,10:53:28,上午 02:53:28,101,n,n,purple,yellow,magenta,cyan,cyan,maroon,gray,yellow,magenta,navy,black,purple,navy,black,maroon,gray,x,purple,magenta,maroon,red,black,cyan,green,yellow,,14,navy,500,,,,4,2,19,1500,,,,,wkproc,gray,1,n,n,836,gray,exp2,,10
finals counterbalance,1,1,"<?xml version=""1.0""?>\n<Clock xmlns:dt=""urn:schemas-microsoft-com:datatypes""><Description dt:dt=""string"">E-Prime Primary Realtime Clock</Description><StartTime><Timestamp dt:dt=""int"">0</Timestamp><DateUtc dt:dt=""string"">2020-12-28T02:53:28Z</DateUtc></StartTime><FrequencyChanges><FrequencyChange><Frequency dt:dt=""r8"">3117812</Frequency><Timestamp dt:dt=""r8"">8981153029</Timestamp><Current dt:dt=""r8"">0</Current><DateUtc dt:dt=""string"">2020-12-28T02:53:28Z</DateUtc></FrequencyChange></FrequencyChanges></Clock>\n",60.002,1,391418592,12-28-2020,10:53:28,上午 02:53:28,102,n,n,yellow,green,navy,cyan,cyan,gray,blue,green,navy,black,olive,yellow,black,olive,gray,blue,x,yellow,gray,green,cyan,magenta,navy,olive,blue,,17,maroon,100,,,,1,2,20,500,,,,,wkproc,navy,0,n,x,836,navy,exp2,,1
finals counterbalance,1,1,"<?xml version=""1.0""?>\n<Clock xmlns:dt=""urn:schemas-microsoft-com:datatypes""><Description dt:dt=""string"">E-Prime Primary Realtime Clock</Description><StartTime><Timestamp dt:dt=""int"">0</Timestamp><DateUtc dt:dt=""string"">2020-12-28T02:53:28Z</DateUtc></StartTime><FrequencyChanges><FrequencyChange><Frequency dt:dt=""r8"">3117812</Frequency><Timestamp dt:dt=""r8"">8981153029</Timestamp><Current dt:dt=""r8"">0</Current><DateUtc dt:dt=""string"">2020-12-28T02:53:28Z</DateUtc></FrequencyChange></FrequencyChanges></Clock>\n",60.002,1,391418592,12-28-2020,10:53:28,上午 02:53:28,103,x,n,yellow,maroon,black,purple,magenta,red,black,cyan,maroon,gray,yellow,blue,gray,navy,cyan,magenta,x,blue,cyan,maroon,magenta,gray,yellow,red,black,,16,green,100,,,,7,2,21,500,,,,,wkproc,gray,1,x,x,775,green,exp2,,22
finals counterbalance,1,1,"<?xml version=""1.0""?>\n<Clock xmlns:dt=""urn:schemas-microsoft-com:datatypes""><Description dt:dt=""string"">E-Prime Primary Realtime Clock</Description><StartTime><Timestamp dt:dt=""int"">0</Timestamp><DateUtc dt:dt=""string"">2020-12-28T02:53:28Z</DateUtc></StartTime><FrequencyChanges><FrequencyChange><Frequency dt:dt=""r8"">3117812</Frequency><Timestamp dt:dt=""r8"">8981153029</Timestamp><Current dt:dt=""r8"">0</Current><DateUtc dt:dt=""string"">2020-12-28T02:53:28Z</DateUtc></FrequencyChange></FrequencyChanges></Clock>\n",60.002,1,391418592,12-28-2020,10:53:28,上午 02:53:28,104,n,n,red,cyan,purple,navy,navy,blue,maroon,cyan,purple,gray,black,red,gray,black,blue,maroon,x,cyan,magenta,maroon,green,gray,yellow,olive,black,,9,blue,900,,,,5,2,22,500,,,,,wkproc,blue,1,n,n,780,blue,exp2,,9
finals counterbalance,1,1,"<?xml version=""1.0""?>\n<Clock xmlns:dt=""urn:schemas-microsoft-com:datatypes""><Description dt:dt=""string"">E-Prime Primary Realtime Clock</Description><StartTime><Timestamp dt:dt=""int"">0</Timestamp><DateUtc dt:dt=""string"">2020-12-28T02:53:28Z</DateUtc></StartTime><FrequencyChanges><FrequencyChange><Frequency dt:dt=""r8"">3117812</Frequency><Timestamp dt:dt=""r8"">8981153029</Timestamp><Current dt:dt=""r8"">0</Current><DateUtc dt:dt=""string"">2020-12-28T02:53:28Z</DateUtc></FrequencyChange></FrequencyChanges></Clock>\n",60.002,1,391418592,12-28-2020,10:53:28,上午 02:53:28,105,n,n,blue,black,green,purple,purple,maroon,red,black,green,navy,olive,blue,navy,olive,maroon,red,x,olive,black,blue,gray,yellow,purple,red,cyan,,20,magenta,900,,,,6,2,23,1500,,,,,wkproc,black,0,n,x,1196,black,exp2,,24
finals counterbalance,1,1,"<?xml version=""1.0""?>\n<Clock xmlns:dt=""urn:schemas-microsoft-com:datatypes""><Description dt:dt=""string"">E-Prime Primary Realtime Clock</Description><StartTime><Timestamp dt:dt=""int"">0</Timestamp><DateUtc dt:dt=""string"">2020-12-28T02:53:28Z</DateUtc></StartTime><FrequencyChanges><FrequencyChange><Frequency dt:dt=""r8"">3117812</Frequency><Timestamp dt:dt=""r8"">8981153029</Timestamp><Current dt:dt=""r8"">0</Current><DateUtc dt:dt=""string"">2020-12-28T02:53:28Z</DateUtc></FrequencyChange></FrequencyChanges></Clock>\n",60.002,1,391418592,12-28-2020,10:53:28,上午 02:53:28,106,n,n,green,gray,olive,yellow,yellow,cyan,navy,gray,olive,blue,black,green,blue,black,cyan,navy,x,gray,maroon,cyan,blue,red,navy,green,olive,,12,purple,500,,,,3,2,24,500,,,,,wkproc,navy,1,n,n,680,navy,exp2,,13
finals counterbalance,1,1,"<?xml version=""1.0""?>\n<Clock xmlns:dt=""urn:schemas-microsoft-com:datatypes""><Description dt:dt=""string"">E-Prime Primary Realtime Clock</Description><StartTime><Timestamp dt:dt=""int"">0</Timestamp><DateUtc dt:dt=""string"">2020-12-28T02:53:28Z</DateUtc></StartTime><FrequencyChanges><FrequencyChange><Frequency dt:dt=""r8"">3117812</Frequency><Timestamp dt:dt=""r8"">8981153029</Timestamp><Current dt:dt=""r8"">0</Current><DateUtc dt:dt=""string"">2020-12-28T02:53:28Z</DateUtc></FrequencyChange></FrequencyChanges></Clock>\n",60.002,1,391418592,12-28-2020,10:53:28,上午 02:53:28,107,x,n,yellow,maroon,black,purple,cyan,olive,blue,gray,green,magenta,navy,yellow,gray,navy,cyan,magenta,x,yellow,gray,green,cyan,magenta,navy,olive,blue,,17,maroon,100,,,,7,3,25,500,,,,,wkproc,gray,1,x,x,769,maroon,exp2,,22
finals counterbalance,1,1,"<?xml version=""1.0""?>\n<Clock xmlns:dt=""urn:schemas-microsoft-com:datatypes""><Description dt:dt=""string"">E-Prime Primary Realtime Clock</Description><StartTime><Timestamp dt:dt=""int"">0</Timestamp><DateUtc dt:dt=""string"">2020-12-28T02:53:28Z</DateUtc></StartTime><FrequencyChanges><FrequencyChange><Frequency dt:dt=""r8"">3117812</Frequency><Timestamp dt:dt=""r8"">8981153029</Timestamp><Current dt:dt=""r8"">0</Current><DateUtc dt:dt=""string"">2020-12-28T02:53:28Z</DateUtc></FrequencyChange></FrequencyChanges></Clock>\n",60.002,1,391418592,12-28-2020,10:53:28,上午 02:53:28,108,n,n,magenta,gray,olive,navy,navy,maroon,yellow,gray,olive,black,purple,magenta,black,purple,maroon,yellow,x,cyan,magenta,maroon,green,gray,yellow,olive,black,,9,blue,100,,,,2,3,26,1500,,,,,wkproc,yellow,0,n,x,769,yellow,exp2,,6
finals counterbalance,1,1,"<?xml version=""1.0""?>\n<Clock xmlns:dt=""urn:schemas-microsoft-com:datatypes""><Description dt:dt=""string"">E-Prime Primary Realtime Clock</Description><StartTime><Timestamp dt:dt=""int"">0</Timestamp><DateUtc dt:dt=""string"">2020-12-28T02:53:28Z</DateUtc></StartTime><FrequencyChanges><FrequencyChange><Frequency dt:dt=""r8"">3117812</Frequency><Timestamp dt:dt=""r8"">8981153029</Timestamp><Current dt:dt=""r8"">0</Current><DateUtc dt:dt=""string"">2020-12-28T02:53:28Z</DateUtc></FrequencyChange></FrequencyChanges></Clock>\n",60.002,1,391418592,12-28-2020,10:53:28,上午 02:53:28,109,n,n,gray,maroon,purple,magenta,magenta,navy,olive,maroon,purple,yellow,black,gray,yellow,black,navy,olive,x,olive,black,blue,gray,yellow,purple,red,cyan,,20,magenta,500,,,,4,3,27,1500,,,,,wkproc,yellow,1,n,n,1069,yellow,exp2,,18
finals counterbalance,1,1,"<?xml version=""1.0""?>\n<Clock xmlns:dt=""urn:schemas-microsoft-com:datatypes""><Description dt:dt=""string"">E-Prime Primary Realtime Clock</Description><StartTime><Timestamp dt:dt=""int"">0</Timestamp><DateUtc dt:dt=""string"">2020-12-28T02:53:28Z</DateUtc></StartTime><FrequencyChanges><FrequencyChange><Frequency dt:dt=""r8"">3117812</Frequency><Timestamp dt:dt=""r8"">8981153029</Timestamp><Current dt:dt=""r8"">0</Current><DateUtc dt:dt=""string"">2020-12-28T02:53:28Z</DateUtc></FrequencyChange></FrequencyChanges></Clock>\n",60.002,1,391418592,12-28-2020,10:53:28,上午 02:53:28,110,x,n,maroon,black,green,olive,blue,black,gray,yellow,magenta,green,maroon,navy,magenta,red,navy,cyan,x,navy,yellow,magenta,blue,green,maroon,black,gray,,23,cyan,100,,,,8,3,28,1500,,,,,wkproc,red,1,x,x,864,cyan,exp2,,11
finals counterbalance,1,1,"<?xml version=""1.0""?>\n<Clock xmlns:dt=""urn:schemas-microsoft-com:datatypes""><Description dt:dt=""string"">E-Prime Primary Realtime Clock</Description><StartTime><Timestamp dt:dt=""int"">0</Timestamp><DateUtc dt:dt=""string"">2020-12-28T02:53:28Z</DateUtc></StartTime><FrequencyChanges><FrequencyChange><Frequency dt:dt=""r8"">3117812</Frequency><Timestamp dt:dt=""r8"">8981153029</Timestamp><Current dt:dt=""r8"">0</Current><DateUtc dt:dt=""string"">2020-12-28T02:53:28Z</DateUtc></FrequencyChange></FrequencyChanges></Clock>\n",60.002,1,391418592,12-28-2020,10:53:28,上午 02:53:28,111,n,n,purple,blue,red,maroon,maroon,black,navy,blue,red,olive,green,purple,olive,green,black,navy,x,green,purple,yellow,magenta,red,olive,navy,maroon,,6,black,900,,,,5,3,29,500,,,,,wkproc,black,1,n,n,713,black,exp2,,12
finals counterbalance,1,1,"<?xml version=""1.0""?>\n<Clock xmlns:dt=""urn:schemas-microsoft-com:datatypes""><Description dt:dt=""string"">E-Prime Primary Realtime Clock</Description><StartTime><Timestamp dt:dt=""int"">0</Timestamp><DateUtc dt:dt=""string"">2020-12-28T02:53:28Z</DateUtc></StartTime><FrequencyChanges><FrequencyChange><Frequency dt:dt=""r8"">3117812</Frequency><Timestamp dt:dt=""r8"">8981153029</Timestamp><Current dt:dt=""r8"">0</Current><DateUtc dt:dt=""string"">2020-12-28T02:53:28Z</DateUtc></FrequencyChange></FrequencyChanges></Clock>\n",60.002,1,391418592,12-28-2020,10:53:28,上午 02:53:28,112,x,n,gray,red,yellow,green,blue,green,olive,maroon,cyan,red,navy,gray,purple,blue,magenta,maroon,x,gray,maroon,cyan,blue,red,navy,green,olive,,12,purple,900,,,,11,3,30,500,,,,,wkproc,green,1,x,x,747,purple,exp2,,15
finals counterbalance,1,1,"<?xml version=""1.0""?>\n<Clock xmlns:dt=""urn:schemas-microsoft-com:datatypes""><Description dt:dt=""string"">E-Prime Primary Realtime Clock</Description><StartTime><Timestamp dt:dt=""int"">0</Timestamp><DateUtc dt:dt=""string"">2020-12-28T02:53:28Z</DateUtc></StartTime><FrequencyChanges><FrequencyChange><Frequency dt:dt=""r8"">3117812</Frequency><Timestamp dt:dt=""r8"">8981153029</Timestamp><Current dt:dt=""r8"">0</Current><DateUtc dt:dt=""string"">2020-12-28T02:53:28Z</DateUtc></FrequencyChange></FrequencyChanges></Clock>\n",60.002,1,391418592,12-28-2020,10:53:28,上午 02:53:28,113,n,n,blue,green,black,purple,purple,red,cyan,green,black,olive,magenta,blue,olive,magenta,red,cyan,x,black,olive,blue,yellow,maroon,purple,magenta,navy,,10,gray,100,,,,1,3,31,500,,,,,wkproc,cyan,0,n,x,808,cyan,exp2,,4
finals counterbalance,1,1,"<?xml version=""1.0""?>\n<Clock xmlns:dt=""urn:schemas-microsoft-com:datatypes""><Description dt:dt=""string"">E-Prime Primary Realtime Clock</Description><StartTime><Timestamp dt:dt=""int"">0</Timestamp><DateUtc dt:dt=""string"">2020-12-28T02:53:28Z</DateUtc></StartTime><FrequencyChanges><FrequencyChange><Frequency dt:dt=""r8"">3117812</Frequency><Timestamp dt:dt=""r8"">8981153029</Timestamp><Current dt:dt=""r8"">0</Current><DateUtc dt:dt=""string"">2020-12-28T02:53:28Z</DateUtc></FrequencyChange></FrequencyChanges></Clock>\n",60.002,1,391418592,12-28-2020,10:53:28,上午 02:53:28,114,x,n,red,cyan,purple,navy,olive,gray,magenta,yellow,blue,navy,green,cyan,gray,black,blue,maroon,x,cyan,yellow,blue,olive,navy,green,gray,magenta,,5,maroon,500,,,,10,3,32,1500,,,,,wkproc,blue,1,x,x,803,maroon,exp2,,9
finals counterbalance,1,1,"<?xml version=""1.0""?>\n<Clock xmlns:dt=""urn:schemas-microsoft-com:datatypes""><Description dt:dt=""string"">E-Prime Primary Realtime Clock</Description><StartTime><Timestamp dt:dt=""int"">0</Timestamp><DateUtc dt:dt=""string"">2020-12-28T02:53:28Z</DateUtc></StartTime><FrequencyChanges><FrequencyChange><Frequency dt:dt=""r8"">3117812</Frequency><Timestamp dt:dt=""r8"">8981153029</Timestamp><Current dt:dt=""r8"">0</Current><DateUtc dt:dt=""string"">2020-12-28T02:53:28Z</DateUtc></FrequencyChange></FrequencyChanges></Clock>\n",60.002,1,391418592,12-28-2020,10:53:28,上午 02:53:28,115,x,n,black,navy,red,maroon,green,magenta,black,purple,yellow,cyan,maroon,red,cyan,magenta,olive,green,x,red,purple,yellow,green,cyan,maroon,magenta,black,,2,navy,500,,,,9,3,33,500,,,,,wkproc,red,1,x,x,825,navy,exp2,,23
finals counterbalance,1,1,"<?xml version=""1.0""?>\n<Clock xmlns:dt=""urn:schemas-microsoft-com:datatypes""><Description dt:dt=""string"">E-Prime Primary Realtime Clock</Description><StartTime><Timestamp dt:dt=""int"">0</Timestamp><DateUtc dt:dt=""string"">2020-12-28T02:53:28Z</DateUtc></StartTime><FrequencyChanges><FrequencyChange><Frequency dt:dt=""r8"">3117812</Frequency><Timestamp dt:dt=""r8"">8981153029</Timestamp><Current dt:dt=""r8"">0</Current><DateUtc dt:dt=""string"">2020-12-28T02:53:28Z</DateUtc></FrequencyChange></FrequencyChanges></Clock>\n",60.002,1,391418592,12-28-2020,10:53:28,上午 02:53:28,116,n,n,green,gray,maroon,magenta,magenta,red,purple,gray,maroon,blue,yellow,green,blue,yellow,red,purple,x,navy,maroon,green,gray,blue,cyan,purple,red,,7,olive,900,,,,6,3,34,1500,,,,,wkproc,green,0,n,x,675,green,exp2,,3
finals counterbalance,1,1,"<?xml version=""1.0""?>\n<Clock xmlns:dt=""urn:schemas-microsoft-com:datatypes""><Description dt:dt=""string"">E-Prime Primary Realtime Clock</Description><StartTime><Timestamp dt:dt=""int"">0</Timestamp><DateUtc dt:dt=""string"">2020-12-28T02:53:28Z</DateUtc></StartTime><FrequencyChanges><FrequencyChange><Frequency dt:dt=""r8"">3117812</Frequency><Timestamp dt:dt=""r8"">8981153029</Timestamp><Current dt:dt=""r8"">0</Current><DateUtc dt:dt=""string"">2020-12-28T02:53:28Z</DateUtc></FrequencyChange></FrequencyChanges></Clock>\n",60.002,1,391418592,12-28-2020,10:53:28,上午 02:53:28,117,n,n,navy,olive,cyan,yellow,yellow,purple,red,olive,cyan,blue,magenta,navy,blue,magenta,purple,red,x,purple,magenta,maroon,red,black,cyan,green,yellow,,14,navy,500,,,,3,3,35,500,,,,,wkproc,magenta,0,n,x,602,magenta,exp2,,20
finals counterbalance,1,1,"<?xml version=""1.0""?>\n<Clock xmlns:dt=""urn:schemas-microsoft-com:datatypes""><Description dt:dt=""string"">E-Prime Primary Realtime Clock</Description><StartTime><Timestamp dt:dt=""int"">0</Timestamp><DateUtc dt:dt=""string"">2020-12-28T02:53:28Z</DateUtc></StartTime><FrequencyChanges><FrequencyChange><Frequency dt:dt=""r8"">3117812</Frequency><Timestamp dt:dt=""r8"">8981153029</Timestamp><Current dt:dt=""r8"">0</Current><DateUtc dt:dt=""string"">2020-12-28T02:53:28Z</DateUtc></FrequencyChange></FrequencyChanges></Clock>\n",60.002,1,391418592,12-28-2020,10:53:28,上午 02:53:28,118,x,n,green,red,magenta,blue,green,magenta,yellow,navy,olive,maroon,red,purple,cyan,olive,purple,black,x,purple,navy,olive,green,maroon,red,magenta,yellow,,18,black,900,,,,12,3,36,1500,,,,,wkproc,cyan,1,x,x,669,black,exp2,,16
finals counterbalance,1,1,"<?xml version=""1.0""?>\n<Clock xmlns:dt=""urn:schemas-microsoft-com:datatypes""><Description dt:dt=""string"">E-Prime Primary Realtime Clock</Description><StartTime><Timestamp dt:dt=""int"">0</Timestamp><DateUtc dt:dt=""string"">2020-12-28T02:53:28Z</DateUtc></StartTime><FrequencyChanges><FrequencyChange><Frequency dt:dt=""r8"">3117812</Frequency><Timestamp dt:dt=""r8"">8981153029</Timestamp><Current dt:dt=""r8"">0</Current><DateUtc dt:dt=""string"">2020-12-28T02:53:28Z</DateUtc></FrequencyChange></FrequencyChanges></Clock>\n",60.002,1,391418592,12-28-2020,10:53:28,上午 02:53:28,119,x,n,olive,black,gray,blue,gray,blue,cyan,green,navy,olive,red,maroon,purple,red,green,magenta,x,maroon,green,navy,gray,olive,red,blue,cyan,,24,purple,100,,,,7,4,37,500,,,,,wkproc,olive,1,x,x,658,purple,exp2,,2
